Time (s),Gyroscope X (deg/s),Gyroscope Y (deg/s),Gyroscope Z (deg/s),Accelerometer X (g),Accelerometer Y (g),Accelerometer Z (g),Magnetometer X (uT),Magnetometer Y (uT),Magnetometer Z (uT),Barometer (hPa)
0,1.912671,0.6443951,-0.4780758,0.9833176,-0.04204325,-0.09729855,-37.63876,24.33414,4.155897,1019.979
0.004994869,0.9902278,0.8244272,-0.5392208,0.9828029,-0.04292863,-0.1045439,-37.63876,24.33414,4.155897,1019.979
0.014983177,0.9287316,0.5843843,-0.6003658,0.9833047,-0.04482803,-0.1079682,-37.63876,24.33414,4.155897,1019.979
0.024972439,1.543694,0.3443415,-0.5392208,0.9924482,-0.03742061,-0.1039838,-37.63876,24.33414,4.155897,1019.976
0.0349617,2.958106,-0.07573352,-0.6003658,0.9885942,-0.03710182,-0.0957609,-37.63876,24.33414,4.155897,1019.976
0.044950962,4.864488,0.1643093,-0.6615107,0.9920251,-0.03662826,-0.09095393,-36.88081,23.96778,4.533691,1019.976
0.054940224,5.294961,0.4043522,-0.2946409,0.9915323,-0.03521697,-0.08754228,-36.88081,23.96778,4.533691,1019.976
0.064929485,4.802992,0.2243201,0.01108406,0.9893492,-0.02302358,-0.08865948,-36.88081,23.96778,4.533691,1019.977
0.074917793,3.511572,-0.4958085,0.3779539,0.988748,-0.01669192,-0.08801094,-36.88081,23.96778,4.533691,1019.977
0.084907055,2.40464,-0.7958621,0.6225339,0.985808,-0.01388533,-0.08213867,-36.88081,23.96778,4.533691,1019.977
0.094896317,1.666686,-1.035905,0.5002439,0.9798878,-0.01006107,-0.08248316,-38.01051,24.33044,4.547026,1019.977
0.104885578,1.60519,-0.61583,0.5002439,0.9870469,-0.000261771,-0.07697906,-38.01051,24.33044,4.547026,1019.976
0.11487484,2.097159,-0.3157764,0.194519,0.9865175,0.001228009,-0.07934593,-38.01051,24.33044,4.547026,1019.976
0.124864101,2.158656,-0.3157764,-0.1112059,0.9840851,0.00071665,-0.08030656,-38.01051,24.33044,4.547026,1019.976
0.137350559,1.789678,-0.4357978,-0.05006092,0.9837123,-0.005629547,-0.08094909,-38.01051,24.33044,4.547026,1019.976
0.147338867,0.3752659,-0.4958085,0.194519,0.9794034,-0.01148035,-0.08637033,-37.2478,23.59155,4.53731,1019.975
0.157328129,-0.9776503,-0.61583,0.255664,0.9794606,-0.01441557,-0.08596448,-37.2478,23.59155,4.53731,1019.975
0.16731739,-1.961589,-0.4958085,0.194519,0.9808319,-0.008575656,-0.08293288,-37.2478,23.59155,4.53731,1019.975
0.177306652,-1.900093,-0.5558193,0.01108406,0.985164,-0.006993596,-0.08677448,-37.2478,23.59155,4.53731,1019.975
0.187295914,-1.777101,-0.3757871,-0.2946409,0.9909999,-0.006418293,-0.086798,-37.2478,23.59155,4.53731,1019.976
0.197284699,-1.715605,-0.195755,-0.2946409,0.9926295,-0.01613259,-0.08898551,-38.01051,24.33044,4.547026,1019.976
0.207273483,-2.26907,0.04428791,-0.1112059,0.9876651,-0.01272305,-0.09368251,-38.01051,24.33044,4.547026,1019.976
0.217262745,-2.576551,0.04428791,-0.1723509,0.9883538,-0.02299233,-0.09202426,-38.01051,24.33044,4.547026,1019.976
0.227252007,-2.76104,0.1643093,-0.05006092,0.9869226,-0.02495349,-0.09302878,-38.01051,24.33044,4.547026,1019.975
0.237240791,-2.392063,0.04428791,0.01108406,0.9895559,-0.03799811,-0.1006076,-38.01051,24.33044,4.547026,1019.975
0.247230053,-1.715605,-0.01572281,0.133374,0.9872253,-0.0462277,-0.1085116,-37.63158,23.9613,4.155277,1019.975
0.257219315,-1.223635,-0.1357442,0.194519,0.9891677,-0.04524858,-0.1065723,-37.63158,23.9613,4.155277,1019.975
0.267208576,-0.3626884,0.3443415,0.5002439,0.9878424,-0.05024963,-0.09946627,-37.63158,23.9613,4.155277,1019.973
0.277197361,0.6827468,0.2243201,0.4390989,0.9912639,-0.05069342,-0.09901842,-37.63158,23.9613,4.155277,1019.973
0.287186146,1.174716,0.04428791,0.6225339,0.9858521,-0.04784466,-0.0989096,-37.63158,23.9613,4.155277,1019.973
0.297175407,0.8057392,-0.1357442,0.316809,0.9832842,-0.04150281,-0.1011383,-37.63158,23.9613,4.155277,1019.973
0.307164669,0.9287316,-0.1357442,0.01108406,0.9812673,-0.03529106,-0.09325755,-37.63158,23.9613,4.155277,1019.969
0.317153931,1.420701,-0.2557657,-0.4169308,0.9812705,-0.03482911,-0.09131876,-37.63158,23.9613,4.155277,1019.969
0.327143192,2.035663,0.2843308,-0.5392208,0.9841626,-0.03378313,-0.09323777,-37.63158,23.9613,4.155277,1019.969
0.3371315,3.019602,0.7044058,-0.6003658,0.9821363,-0.02895723,-0.09117341,-37.25214,23.96403,4.989302,1019.969
0.347120762,3.757556,0.5243737,-0.6003658,0.9837239,-0.03530052,-0.0899018,-37.25214,23.96403,4.989302,1019.969
0.357110024,4.311022,0.5243737,-0.5392208,0.9812374,-0.0328832,-0.09078676,-37.25214,23.96403,4.989302,1019.969
0.367099285,4.311022,0.3443415,-0.2946409,0.9958195,-0.03119434,-0.09132081,-37.25214,23.96403,4.989302,1019.969
0.377088547,3.69606,0.5243737,0.07222904,0.9927886,-0.02584907,-0.0926086,-37.25214,23.96403,4.989302,1019.969
0.387077808,2.712121,0.7044058,0.255664,0.9800981,-0.02269968,-0.08666348,-38.00575,23.95791,4.159515,1019.966
0.39706707,1.728182,0.3443415,0.133374,0.9780591,-0.01972158,-0.09235426,-38.00575,23.95791,4.159515,1019.966
0.407055378,1.174716,-0.1357442,0.133374,0.9810209,-0.02069999,-0.08902676,-38.00575,23.95791,4.159515,1019.966
0.41704464,0.6212507,-0.1357442,-0.1723509,0.9822411,-0.009379641,-0.09404262,-38.00575,23.95791,4.159515,1019.966
0.427033901,0.9902278,0.1643093,-0.3557858,0.9856721,-0.008437587,-0.08777842,-38.00575,23.95791,4.159515,1019.965
0.437023163,2.035663,0.1042986,-0.4780758,0.9846408,-0.0055169,-0.08817825,-37.63158,23.9613,4.155277,1019.965
0.447011948,2.650625,0.2243201,-0.4780758,0.9911718,-0.01334999,-0.07975148,-37.63158,23.9613,4.155277,1019.965
0.457001209,2.89661,0.4043522,-0.2946409,0.9862881,-0.01714441,-0.09330547,-37.63158,23.9613,4.155277,1019.965
0.466990471,1.851174,-0.01572281,-0.1112059,0.9840307,-0.0250625,-0.08819528,-37.63158,23.9613,4.155277,1019.964
0.476979256,0.8057392,-0.01572281,-0.2334959,0.9791444,-0.02603943,-0.09348736,-37.63158,23.9613,4.155277,1019.964
0.486968517,-0.05520741,0.1643093,-0.2946409,0.9859758,-0.02549539,-0.09014611,-37.64594,24.70696,4.156517,1019.964
0.496957302,-0.1781998,0.2843308,-0.4780758,0.9870317,-0.02753142,-0.08297946,-37.64594,24.70696,4.156517,1019.964
0.506946564,0.3137697,0.2843308,-0.4169308,0.989704,-0.01616965,-0.08944898,-37.64594,24.70696,4.156517,1019.965
0.516935825,0.5597545,0.1643093,-0.4780758,0.9879936,-0.02749073,-0.08491164,-37.64594,24.70696,4.156517,1019.965
0.526925087,0.744243,0.4043522,-0.05006092,0.9840941,-0.02707382,-0.08391185,-37.64594,24.70696,4.156517,1019.965
0.536914349,0.9902278,0.3443415,0.194519,0.9839947,-0.02217307,-0.08523034,-37.99614,23.58477,4.545786,1019.965
0.546902657,1.297709,0.1042986,0.133374,0.9776621,-0.02507846,-0.09393464,-37.99614,23.58477,4.545786,1019.966
0.556891918,0.3752659,-0.01572281,0.255664,0.9803894,-0.01336594,-0.09027915,-37.99614,23.58477,4.545786,1019.966
0.56688118,-0.3626884,-0.07573352,0.255664,0.9813271,-0.01280443,-0.09460644,-37.99614,23.58477,4.545786,1019.966
0.576870442,-1.100643,-0.07573352,-0.05006092,0.9827345,-0.008448477,-0.09016807,-37.99614,23.58477,4.545786,1019.966
0.586859703,-1.162139,-0.3757871,-0.1723509,0.9774644,-0.01106055,-0.08345641,-37.63158,23.9613,4.155277,1019.965
0.596848965,-0.239696,-0.1357442,-0.4169308,0.9895991,-0.00844487,-0.08298709,-37.63158,23.9613,4.155277,1019.965
0.606838226,0.1292812,0.4043522,-0.5392208,0.9911231,-0.01324533,-0.08745616,-37.63158,23.9613,4.155277,1019.965
0.616826534,-0.1167036,0.3443415,-0.2946409,0.9893225,-0.02015378,-0.08424992,-37.63158,23.9613,4.155277,1019.965
0.626815796,-0.6701694,0.3443415,-0.05006092,0.9864297,-0.0240107,-0.09107436,-37.63158,23.9613,4.155277,1019.966
0.636805058,-1.346627,0.1042986,-0.05006092,0.9820822,-0.02556005,-0.08964048,-38.37992,23.95452,4.163754,1019.966
0.646794319,-2.207574,-0.2557657,0.255664,0.9819436,-0.0191688,-0.09284728,-38.37992,23.95452,4.163754,1019.966
0.656783104,-3.314505,0.1042986,0.316809,0.9800494,-0.02212654,-0.09291092,-38.37992,23.95452,4.163754,1019.966
0.666772366,-3.314505,-0.2557657,0.4390989,0.9834557,-0.02300612,-0.09632803,-38.37992,23.95452,4.163754,1019.962
0.676761627,-2.884032,-0.1357442,0.255664,0.9877765,-0.01811846,-0.0918951,-38.37992,23.95452,4.163754,1019.962
0.686750412,-2.207574,0.1042986,0.316809,0.9878069,-0.01865236,-0.08853692,-38.00049,23.95724,4.997778,1019.962
0.696739674,-1.777101,0.1643093,0.316809,0.9868593,-0.02247368,-0.09585495,-38.00049,23.95724,4.997778,1019.962
0.706728459,-1.961589,-0.2557657,0.3779539,0.9893947,-0.02405868,-0.08435084,-38.00049,23.95724,4.997778,1019.963
0.71671772,-1.654108,-0.01572281,0.5002439,0.9910094,-0.0323348,-0.08457433,-38.00049,23.95724,4.997778,1019.963
0.726706982,-1.654108,0.3443415,0.255664,0.9856128,-0.02905027,-0.08060054,-38.00049,23.95724,4.997778,1019.963
0.736696243,-1.838597,0.1643093,0.316809,0.9847132,-0.03578718,-0.08895735,-37.63593,24.33378,4.607269,1019.963
0.746685505,-2.023085,0.1042986,0.4390989,0.9827137,-0.0333626,-0.08984532,-37.63593,24.33378,4.607269,1019.964
0.756673813,-2.084582,0.3443415,0.5613889,0.9826747,-0.03093512,-0.08881916,-37.63593,24.33378,4.607269,1019.964
0.766663074,-2.146078,0.1042986,0.7448239,0.9865258,-0.0298419,-0.09315191,-37.63593,24.33378,4.607269,1019.964
0.776652336,-1.654108,-0.1357442,0.8059688,0.9875091,-0.02984699,-0.09171331,-37.63593,24.33378,4.607269,1019.964
0.786641598,-1.100643,-0.195755,0.5613889,0.9868176,-0.0181657,-0.08948137,-37.62875,23.96094,4.606649,1019.965
0.796630859,-0.7931617,-0.1357442,0.5613889,0.9884083,-0.02451554,-0.08772822,-37.62875,23.96094,4.606649,1019.965
0.806620121,-1.039147,-0.1357442,0.6836789,0.9833807,-0.01815769,-0.09379417,-37.62875,23.96094,4.606649,1019.965
0.816608906,-1.223635,0.1643093,0.7448239,0.9854826,-0.02548957,-0.09110618,-37.62875,23.96094,4.606649,1019.965
0.826598167,-1.531116,0.1042986,0.6225339,0.9791387,-0.02462089,-0.09007871,-37.62875,23.96094,4.606649,1019.964
0.836586952,-2.26907,-0.07573352,0.6225339,0.9844635,-0.02259504,-0.08957984,-38.00292,23.95755,4.610888,1019.964
0.846576214,-2.638047,0.2243201,0.5002439,0.9883178,-0.02057138,-0.09051656,-38.00292,23.95755,4.610888,1019.964
0.856565475,-2.453559,0.04428791,0.6836789,0.9874076,-0.02072328,-0.08039814,-38.00292,23.95755,4.610888,1019.964
0.86655426,-1.961589,0.04428791,0.8059688,0.9904713,-0.02895144,-0.08255683,-38.00292,23.95755,4.610888,1019.965
0.876543522,-1.346627,0.2243201,0.6836789,0.9879577,-0.0246013,-0.0819467,-38.00292,23.95755,4.610888,1019.965
0.886532783,-1.592612,0.1042986,0.9894037,0.9923683,-0.02693722,-0.08492614,-37.26175,24.33717,4.603031,1019.965
0.896522045,-2.26907,-0.1357442,1.050549,0.9840819,-0.02704766,-0.08583802,-37.26175,24.33717,4.603031,1019.965
0.906511307,-3.376002,-0.07573352,0.9282588,0.9801613,-0.02564799,-0.08529454,-37.26175,24.33717,4.603031,1019.96
0.916499615,-3.683483,-0.195755,0.7448239,0.9864687,-0.02643818,-0.09210052,-37.26175,24.33717,4.603031,1019.96
0.926488876,-3.56049,-0.3757871,0.7448239,0.9864444,-0.02591737,-0.09449562,-37.26175,24.33717,4.603031,1019.96
0.936478138,-2.699543,0.2243201,0.5002439,0.9865024,-0.02557315,-0.08388907,-37.2478,23.59155,4.53731,1019.96
0.9464674,-1.900093,0.1643093,0.6225339,0.9821423,-0.0294388,-0.09166756,-37.2478,23.59155,4.53731,1019.959
0.956456661,-1.46962,0.04428791,0.5002439,0.9845621,-0.03077523,-0.09846206,-37.2478,23.59155,4.53731,1019.959
0.966445923,-1.346627,0.04428791,0.6225339,0.9884982,-0.03080214,-0.0922261,-37.2478,23.59155,4.53731,1019.959
0.976435184,-1.531116,0.04428791,0.9282588,0.9841838,-0.03429741,-0.09132422,-37.2478,23.59155,4.53731,1019.959
0.986423969,-1.838597,-0.07573352,0.7448239,0.9773439,-0.03247938,-0.08882388,-37.64351,24.70666,4.543407,1019.959
0.996412754,-2.453559,-0.3157764,0.9894037,0.979334,-0.03582132,-0.09229502,-37.64351,24.70666,4.543407,1019.959
1.006402016,-2.699543,-0.3757871,0.7448239,0.9816339,-0.02940027,-0.09503535,-37.64351,24.70666,4.543407,1019.959
1.016391277,-2.084582,-0.3757871,0.3779539,0.9865733,-0.03509994,-0.1014769,-37.64351,24.70666,4.543407,1019.959
1.026380062,-1.46962,-0.195755,0.5613889,0.9856002,-0.03042957,-0.08689845,-37.64351,24.70666,4.543407,1019.96
1.036369324,-1.039147,0.1042986,0.5002439,0.9893792,-0.02543144,-0.09113028,-37.26216,24.33722,4.538549,1019.96
1.046358585,-0.6701694,0.1042986,0.316809,0.984154,-0.03142106,-0.08739618,-37.26216,24.33722,4.538549,1019.96
1.056347847,-0.3011922,0.04428791,0.4390989,0.9842201,-0.03531288,-0.08846019,-37.26216,24.33722,4.538549,1019.96
1.066337109,0.006288783,0.2843308,0.255664,0.9867794,-0.03929265,-0.08038995,-37.26216,24.33722,4.538549,1019.958
1.076325417,0.06778497,0.8244272,0.133374,0.9795362,-0.04422391,-0.0848048,-37.26216,24.33722,4.538549,1019.958
1.086314678,-0.239696,0.8244272,0.255664,0.9866585,-0.03528309,-0.08799371,-37.25214,23.96403,4.989302,1019.958
1.09630394,-0.4856807,0.8244272,0.4390989,0.9884588,-0.03024861,-0.09702892,-37.25214,23.96403,4.989302,1019.958
1.106293201,-0.6701694,0.1042986,0.6836789,0.9855395,-0.02983026,-0.09507206,-37.25214,23.96403,4.989302,1019.959
1.116282463,-0.3626884,0.04428791,0.6836789,0.9860054,-0.02930872,-0.09698863,-37.25214,23.96403,4.989302,1019.959
1.126271725,-0.3011922,-0.2557657,0.5613889,0.9776831,-0.02652972,-0.09493557,-37.25214,23.96403,4.989302,1019.959
1.136260986,0.1292812,-0.07573352,0.4390989,0.9821816,-0.03046081,-0.08832199,-38.01051,24.33044,4.547026,1019.959
1.146249771,0.4367621,0.04428791,0.194519,0.9894934,-0.03177037,-0.09177581,-38.01051,24.33044,4.547026,1019.96
1.156238556,0.9287316,0.1042986,0.01108406,0.9861145,-0.03141816,-0.08548206,-38.01051,24.33044,4.547026,1019.96
1.166227818,1.297709,0.1042986,0.194519,0.9826956,-0.03285487,-0.09127734,-38.01051,24.33044,4.547026,1019.96
1.176217079,0.9287316,0.1643093,-0.1112059,0.987076,-0.03325142,-0.09324323,-38.01051,24.33044,4.547026,1019.96
1.186206341,0.9287316,0.1042986,0.194519,0.9845983,-0.03225919,-0.09705529,-37.62156,23.58811,4.60603,1019.957
1.196195126,0.5597545,0.1042986,0.3779539,0.9807408,-0.03474481,-0.09805734,-37.62156,23.58811,4.60603,1019.957
1.206184387,-0.05520741,0.1042986,0.316809,0.9811019,-0.02602999,-0.09205478,-37.62156,23.58811,4.60603,1019.957
1.216173649,0.006288783,-0.1357442,0.316809,0.9883387,-0.02249113,-0.09297474,-37.62156,23.58811,4.60603,1019.957
1.226162911,0.2522736,-0.195755,0.133374,0.987876,-0.02255072,-0.08911939,-37.62156,23.58811,4.60603,1019.957
1.236151218,0.8057392,0.04428791,-0.1112059,0.9879155,-0.02310425,-0.08431657,-37.26934,24.71005,4.539169,1019.957
1.24614048,1.60519,0.1042986,-0.2946409,0.9845693,-0.02610341,-0.08292655,-37.26934,24.71005,4.539169,1019.957
1.256129742,1.974167,0.1643093,-0.1112059,0.9871097,-0.03238639,-0.08503177,-37.26934,24.71005,4.539169,1019.957
1.266119003,1.359205,0.1643093,-0.3557858,0.991905,-0.02933927,-0.08835699,-37.26934,24.71005,4.539169,1019.959
1.276108265,0.5597545,0.2843308,0.133374,0.984608,-0.02993637,-0.08832444,-37.26934,24.71005,4.539169,1019.959
1.286097527,-0.3626884,0.2843308,0.316809,0.9817035,-0.03142468,-0.08978884,-37.62915,23.96099,4.542168,1019.959
1.296086788,-0.1781998,0.2243201,0.3779539,0.9812134,-0.03142541,-0.09026737,-37.62915,23.96099,4.542168,1019.959
1.30607605,0.1292812,0.04428791,0.133374,0.9826204,-0.02847493,-0.09020071,-37.62915,23.96099,4.542168,1019.961
1.316064835,0.3137697,-0.1357442,0.133374,0.9859158,-0.02161665,-0.08811902,-37.62915,23.96099,4.542168,1019.961
1.326053619,0.6212507,0.1643093,0.255664,0.9826086,-0.02704329,-0.08775517,-37.62915,23.96099,4.542168,1019.961
1.336042881,0.6212507,0.3443415,0.133374,0.9850979,-0.03040413,-0.08930315,-37.26458,24.33753,4.151659,1019.961
1.346032143,0.5597545,0.1042986,-0.05006092,0.9851312,-0.03141307,-0.08692066,-37.26458,24.33753,4.151659,1019.958
1.356020928,0.744243,0.2243201,-0.05006092,0.9827956,-0.03494468,-0.0812154,-37.26458,24.33753,4.151659,1019.958
1.366010189,0.5597545,-0.01572281,-0.1723509,0.9841662,-0.03144722,-0.08547001,-37.26458,24.33753,4.151659,1019.958
1.375999451,0.3137697,-0.1357442,-0.2334959,0.9836128,-0.02849964,-0.08731748,-37.26458,24.33753,4.151659,1019.958
1.385988712,-0.239696,0.04428791,-0.1112059,0.9861175,-0.0314247,-0.08500051,-38.01293,24.33074,4.160135,1019.958
1.395977974,-0.4241846,-0.01572281,-0.3557858,0.9845989,-0.02991675,-0.08976907,-38.01293,24.33074,4.160135,1019.958
1.405967236,-0.6086732,0.2243201,-0.2946409,0.9879394,-0.02503054,-0.0862932,-38.01293,24.33074,4.160135,1019.958
1.415955544,-0.3011922,0.04428791,-0.2334959,0.9893551,-0.02397364,-0.09061089,-38.01293,24.33074,4.160135,1019.958
1.425944805,-0.3626884,-0.01572281,0.01108406,0.9836428,-0.03043901,-0.08833103,-38.01293,24.33074,4.160135,1019.959
1.435934067,-0.1167036,-0.2557657,-0.1112059,0.9898843,-0.0264004,-0.09115852,-37.63633,24.33383,4.542788,1019.959
1.445923329,-0.1781998,-0.1357442,-0.1723509,0.989024,-0.03462783,-0.097627,-37.63633,24.33383,4.542788,1019.959
1.45591259,0.006288783,-0.1357442,-0.05006092,0.9894599,-0.03216691,-0.09853002,-37.63633,24.33383,4.542788,1019.959
1.465901852,0.4982583,-0.01572281,-0.1112059,0.987557,-0.03323107,-0.09420933,-37.63633,24.33383,4.542788,1019.956
1.475890637,0.8672354,-0.07573352,0.194519,0.9921452,-0.04391725,-0.09355087,-37.63633,24.33383,4.542788,1019.956
1.485879898,1.051724,-0.195755,0.07222904,0.9832274,-0.03669364,-0.09571516,-36.88323,23.96808,4.146801,1019.956
1.49586916,0.9287316,-0.07573352,0.01108406,0.9812793,-0.03625421,-0.09424587,-36.88323,23.96808,4.146801,1019.956
1.505857945,0.744243,-0.01572281,-0.1723509,0.9870674,-0.03088935,-0.08740164,-36.88323,23.96808,4.146801,1019.957
1.515847206,0.3752659,0.1643093,-0.1112059,0.9854527,-0.02308171,-0.08863539,-36.88323,23.96808,4.146801,1019.957
1.525835991,0.4982583,0.3443415,0.07222904,0.9820041,-0.02117358,-0.08904541,-36.88323,23.96808,4.146801,1019.957
1.535825253,0.8057392,0.2843308,-0.1112059,0.9830145,-0.02264301,-0.08764464,-37.63593,24.33378,4.607269,1019.957
1.545814514,1.051724,0.3443415,-0.1112059,0.9850294,-0.02369483,-0.07997724,-37.63593,24.33378,4.607269,1019.957
1.555803776,0.744243,0.2243201,0.07222904,0.9799985,-0.01873591,-0.09089645,-37.63593,24.33378,4.607269,1019.957
1.565793038,0.4367621,0.2243201,0.01108406,0.9825634,-0.02507121,-0.08914933,-37.63593,24.33378,4.607269,1019.957
1.575782299,-0.1781998,0.1042986,-0.1112059,0.9897251,-0.01668393,-0.08753543,-37.63593,24.33378,4.607269,1019.957
1.585771561,-0.1781998,0.1643093,-0.1723509,0.9863338,-0.01677404,-0.08462508,-37.63593,24.33378,4.607269,1019.96
1.595759869,0.006288783,0.2843308,-0.2334959,0.9858531,-0.0158574,-0.0807445,-37.63593,24.33378,4.607269,1019.96
1.60574913,-0.547177,0.3443415,-0.2946409,0.9848819,-0.01634696,-0.08171418,-37.63593,24.33378,4.607269,1019.96
1.615738392,-1.100643,0.7644165,-0.5392208,0.9897105,-0.01430877,-0.08265692,-37.63593,24.33378,4.607269,1019.96
1.625727654,-1.900093,1.06447,-0.5392208,0.9848903,-0.01964602,-0.09047025,-37.63593,24.33378,4.607269,1019.955
1.635716915,-2.515055,1.004459,-0.4780758,0.9823799,-0.01530241,-0.08937857,-38.02011,24.70357,4.160755,1019.955
1.6457057,-2.453559,0.7044058,-0.1723509,0.9804581,-0.01913827,-0.0966906,-38.02011,24.70357,4.160755,1019.955
1.655694962,-2.330566,0.9444486,-0.1723509,0.9869227,-0.02448501,-0.09157153,-38.02011,24.70357,4.160755,1019.955
1.665684223,-2.330566,1.06447,-0.05006092,0.988444,-0.02787346,-0.09215041,-38.02011,24.70357,4.160755,1019.957
1.675673485,-2.392063,0.9444486,-0.2334959,0.9924883,-0.03516319,-0.09043755,-38.02011,24.70357,4.160755,1019.957
1.685662747,-2.638047,1.06447,0.01108406,0.9934115,-0.03128954,-0.08697186,-38.38427,24.32699,4.615746,1019.957
1.695651055,-3.130017,1.184492,0.316809,0.9749683,-0.03779992,-0.09520764,-38.38427,24.32699,4.615746,1019.957
1.705640316,-2.945528,0.7044058,0.5002439,0.9803016,-0.03813616,-0.1005504,-38.38427,24.32699,4.615746,1019.958
1.715629578,-2.453559,0.5243737,0.133374,0.9803352,-0.03727113,-0.09233889,-38.38427,24.32699,4.615746,1019.958
1.725618839,-2.638047,0.4043522,0.5613889,0.9778606,-0.03581696,-0.09421217,-38.38427,24.32699,4.615746,1019.958
1.735608101,-1.531116,0.7644165,0.3779539,0.9777675,-0.03046079,-0.09311032,-37.63593,24.33378,4.607269,1019.958
1.745597362,0.006288783,0.4043522,0.194519,0.9872087,-0.0391611,-0.08954227,-37.63593,24.33378,4.607269,1019.955
1.755586624,1.051724,0.4043522,0.01108406,0.9976152,-0.0464218,-0.08305313,-37.63593,24.33378,4.607269,1019.955
1.765575409,2.158656,0.1643093,0.316809,0.9966713,-0.04697023,-0.07968892,-37.63593,24.33378,4.607269,1019.955
1.775564671,1.974167,-0.1357442,0.7448239,0.9922398,-0.04318304,-0.07570856,-37.63593,24.33378,4.607269,1019.955
1.785553932,1.482197,-0.195755,0.6836789,0.9835055,-0.04572824,-0.0776436,-37.62875,23.96094,4.606649,1019.957
1.795542717,1.174716,-0.07573352,0.8671138,0.9834391,-0.04324188,-0.08095132,-37.62875,23.96094,4.606649,1019.957
1.805531502,0.9287316,-0.3157764,0.5613889,0.9804775,-0.04132648,-0.08136433,-37.62875,23.96094,4.606649,1019.957
1.815520763,1.11322,-0.2557657,0.5613889,0.9760124,-0.03793583,-0.08413818,-37.62875,23.96094,4.606649,1019.957
1.825510025,1.297709,-0.3157764,0.3779539,0.9772505,-0.0280602,-0.09063652,-37.62875,23.96094,4.606649,1019.958
1.835499287,2.097159,-0.3157764,0.07222904,0.9797796,-0.03103758,-0.08446721,-38.0101,24.33039,4.611507,1019.958
1.845488548,3.204091,-0.3757871,-0.05006092,0.9844697,-0.02213964,-0.08715951,-38.0101,24.33039,4.611507,1019.958
1.85547781,3.880549,-0.8558729,-0.1723509,0.9904199,-0.02696628,-0.08491409,-38.0101,24.33039,4.611507,1019.958
1.865467072,4.557007,-0.9158835,-0.1112059,0.9947588,-0.02305485,-0.08050639,-38.0101,24.33039,4.611507,1019.957
1.875455856,4.925984,-1.335958,0.133374,0.9922693,-0.02063099,-0.08187289,-38.0101,24.33039,4.611507,1019.957
1.885445118,4.003541,-1.215937,0.194519,0.9893833,-0.02075308,-0.07607631,-37.25932,24.33686,4.989922,1019.957
1.895433903,3.265587,-1.035905,0.4390989,0.9893981,-0.02219126,-0.07804032,-37.25932,24.33686,4.989922,1019.957
1.905423164,2.281648,-0.4357978,0.5613889,0.9757332,-0.02046188,-0.07646091,-37.25932,24.33686,4.989922,1019.96
1.915412426,1.359205,-0.6758407,0.7448239,0.9815148,-0.01742638,-0.07786599,-37.25932,24.33686,4.989922,1019.96
1.925401211,0.1292812,-0.6758407,0.8059688,0.9809614,-0.0144788,-0.07971346,-37.25932,24.33686,4.989922,1019.96
1.935390472,0.4367621,-0.61583,1.172839,0.9774795,-0.01156174,-0.08250594,-37.64068,24.7063,4.99478,1019.96
1.945379734,2.035663,0.6443951,1.233984,0.9850093,0.02251632,-0.1019115,-37.64068,24.7063,4.99478,1019.956
1.955368996,-2.146078,0.7044058,2.884898,0.991016,0.01147502,-0.1094609,-37.64068,24.7063,4.99478,1019.956
1.965358257,-1.162139,-2.236119,3.129478,0.9846283,0.02040615,-0.09088347,-37.64068,24.7063,4.99478,1019.956
1.975347519,1.420701,-2.896237,3.007188,0.9960861,0.01768137,-0.05778937,-37.64068,24.7063,4.99478,1019.956
1.985336781,-0.6086732,-1.275948,2.701463,0.9835868,0.004951958,-0.06911454,-38.00292,23.95755,4.610888,1019.957
1.995325565,-3.314505,-0.9758942,3.068333,0.9816496,0.000211829,-0.08174875,-38.00292,23.95755,4.610888,1019.957
2.00531435,-5.097895,-0.8558729,3.374058,0.9784524,-0.0167006,-0.09854164,-38.00292,23.95755,4.610888,1019.957
2.015303612,-4.974903,-0.195755,3.251768,0.9782118,-0.03083044,-0.1013122,-38.00292,23.95755,4.610888,1019.957
2.025292873,-4.728918,0.4643629,3.802073,0.9848457,-0.04216536,-0.08671364,-38.00292,23.95755,4.610888,1019.96
2.035282135,-4.236948,-0.3757871,4.168943,0.9861001,-0.0549399,-0.07982451,-37.26894,24.71,4.603651,1019.96
2.04527092,-3.990963,-1.215937,4.841537,1.000068,-0.04923565,-0.08892239,-37.26894,24.71,4.603651,1019.96
2.055260181,-2.26907,-1.155926,5.452987,0.9931613,-0.04727373,-0.09701599,-37.26894,24.71,4.603651,1019.959
2.065249443,-2.023085,-1.035905,5.636422,0.9854038,-0.05074791,-0.10139,-37.26894,24.71,4.603651,1019.959
2.075238705,-1.592612,-0.9158835,5.819857,0.9844722,-0.051791,-0.09755687,-37.26894,24.71,4.603651,1019.959
2.085227966,-1.408124,-1.215937,5.881002,0.9849499,-0.05270109,-0.101919,-37.63593,24.33378,4.607269,1019.959
2.095217228,-1.162139,-1.515991,6.003292,0.9800794,-0.05183677,-0.09897438,-37.63593,24.33378,4.607269,1019.959
2.10520649,-0.3011922,-1.275948,6.064437,0.9866193,-0.06109495,-0.09347471,-37.63593,24.33378,4.607269,1019.959
2.115194798,-1.408124,-2.416152,6.125582,0.9727364,-0.05327273,-0.1090795,-37.63593,24.33378,4.607269,1019.959
2.125184059,-0.3626884,-2.176109,6.064437,0.9820789,-0.05472984,-0.09954367,-37.63593,24.33378,4.607269,1019.959
2.135173321,0.5597545,-1.816044,6.309017,0.9851042,-0.05725109,-0.0904755,-37.64068,24.7063,4.99478,1019.959
2.145162582,-0.1781998,-1.636012,6.431307,0.9890942,-0.06114366,-0.08722971,-37.64068,24.7063,4.99478,1019.958
2.155151844,-0.8546579,-1.936066,7.226192,0.9918932,-0.05474151,-0.08804687,-37.64068,24.7063,4.99478,1019.958
2.165140629,0.3752659,-2.29613,6.920467,0.9698094,-0.04721287,-0.09108031,-37.64068,24.7063,4.99478,1019.958
2.17512989,5.540946,-2.29613,6.981612,0.989916,-0.0481463,-0.07244886,-37.26894,24.71,4.603651,1019.959
2.185119152,4.065037,-1.45598,6.370162,0.9953335,-0.05335058,-0.0788808,-37.26894,24.71,4.603651,1019.959
2.195108414,-2.392063,-1.335958,6.737032,0.9900304,-0.02671438,-0.06804447,-37.26894,24.71,4.603651,1019.959
2.205097675,-4.85191,-1.876055,7.531917,0.9897287,-0.01434802,-0.07976767,-37.26894,24.71,4.603651,1019.959
2.215086937,-2.515055,-0.9758942,7.837642,0.9774176,-0.01564733,-0.105252,-37.26894,24.71,4.603651,1019.959
2.225075245,-1.408124,-1.035905,8.143367,0.9755363,-0.01582029,-0.09464599,-37.26894,24.71,4.603651,1019.958
2.235064507,-3.314505,-1.095916,8.754816,0.9755306,-0.01440174,-0.09123735,-36.59013,25.08905,4.5965,1019.958
2.245053768,-5.097895,-1.45598,9.060541,0.9798589,-0.01656106,-0.1072184,-36.59013,25.08905,4.5965,1019.958
2.25504303,-2.884032,-0.61583,9.488556,0.9776612,-0.001992515,-0.1034571,-36.59013,25.08905,4.5965,1019.958
2.265032291,1.051724,-8.417223,10.46688,0.9575282,-0.02314919,-0.1139855,-36.59013,25.08905,4.5965,1019.958
2.275021553,4.126534,-14.83837,11.32291,0.9936941,-0.04736458,-0.08979587,-36.59013,25.08905,4.5965,1019.958
2.285010338,2.712121,-13.39811,11.50634,1.009121,-0.06659191,-0.09569079,-37.2833,25.45566,4.604889,1019.958
2.302491665,-1.285131,-10.99768,11.87321,1.016614,-0.07391582,-0.08773896,-37.2833,25.45566,4.604889,1019.958
2.304988861,-0.3011922,-9.737458,11.20062,0.9859177,-0.08091281,-0.1093953,-37.2833,25.45566,4.604889,1019.957
2.314978123,1.851174,-9.85748,10.65031,0.9865898,-0.08411548,-0.08876763,-37.2833,25.45566,4.604889,1019.957
2.324967384,3.819053,-9.317384,9.916571,0.9742742,-0.07884286,-0.09481362,-37.2833,25.45566,4.604889,1019.957
2.334956646,3.204091,-8.777287,10.03886,0.9795019,-0.07473374,-0.1038951,-36.60087,25.77227,4.984528,1019.957
2.344944954,2.220152,-7.397041,10.52802,0.9776277,-0.08382764,-0.1195321,-36.60087,25.77227,4.984528,1019.957
2.359928608,1.297709,-7.457052,11.4452,0.9761605,-0.08336788,-0.1190289,-36.60087,25.77227,4.984528,1019.957
2.364923477,3.573068,-7.697094,11.38405,0.9819288,-0.0854596,-0.1383899,-36.60087,25.77227,4.984528,1019.957
2.374912739,6.647878,-9.377394,11.75092,0.982033,-0.08240257,-0.1118167,-36.60087,25.77227,4.984528,1019.957
2.384902001,8.000793,-8.417223,11.56749,0.9922892,-0.0804349,-0.1017171,-36.23145,26.14818,5.367798,1019.958
2.394891262,8.615756,-7.217009,11.62863,0.9876119,-0.08748505,-0.09126966,-36.23145,26.14818,5.367798,1019.958
2.404880047,8.492764,-6.616902,11.81207,0.9764473,-0.09429605,-0.1053417,-36.23145,26.14818,5.367798,1019.958
2.422361374,7.877801,-4.81658,11.75092,0.9776151,-0.08567544,-0.1272873,-36.23145,26.14818,5.367798,1019.958
2.42485857,6.893862,-5.356677,11.87321,0.9643012,-0.07895954,-0.1328079,-36.23145,26.14818,5.367798,1019.957
2.434847832,6.2789,-4.336494,12.17894,0.9676933,-0.07512152,-0.1240603,-36.62242,26.89076,4.986385,1019.957
2.44733429,6.832366,-4.036441,12.48466,0.9639603,-0.07928078,-0.1096908,-36.62242,26.89076,4.986385,1019.957
2.457323551,7.693313,-3.736387,12.60695,0.9674538,-0.08456647,-0.1122584,-36.62242,26.89076,4.986385,1019.957
2.464814663,7.939298,-2.416152,12.85153,0.9771749,-0.1074613,-0.1061669,-36.62242,26.89076,4.986385,1019.957
2.477301121,7.816305,-1.275948,12.97382,0.9644201,-0.1060485,-0.1161631,-36.62242,26.89076,4.986385,1019.957
2.487290382,7.016855,-2.29613,13.27954,0.9766515,-0.1064531,-0.1090279,-35.49272,26.5281,4.973053,1019.957
2.497279644,5.602442,-3.076269,13.46298,0.9804693,-0.1048194,-0.1172004,-35.49272,26.5281,4.973053,1019.957
2.507268906,5.663939,-3.13628,13.40184,0.9752906,-0.09344964,-0.132771,-35.49272,26.5281,4.973053,1019.958
2.517258167,5.971419,-2.716205,13.15726,0.9751696,-0.1040867,-0.1051035,-35.49272,26.5281,4.973053,1019.958
2.527247429,7.447328,-2.656194,13.34069,0.9757679,-0.1104118,-0.1062335,-35.51669,27.6469,4.58802,1019.958
2.537236214,8.123786,-2.29613,13.09611,0.9752544,-0.1061438,-0.09744924,-35.51669,27.6469,4.58802,1019.958
2.547225475,7.262839,-0.6758407,13.27954,0.9772598,-0.1090499,-0.09705544,-35.51669,27.6469,4.58802,1019.959
2.557214737,5.848427,-0.3157764,13.46298,0.9722468,-0.1055357,-0.1094571,-35.51669,27.6469,4.58802,1019.959
2.567203999,4.434015,-0.9758942,13.95214,0.9634623,-0.1009424,-0.09771974,-35.51669,27.6469,4.58802,1019.959
2.57719326,3.634564,0.04428791,13.95214,0.9658493,-0.09939591,-0.1010678,-34.40854,28.40274,4.576546,1019.959
2.587182522,1.912671,-0.6758407,13.70756,0.9614987,-0.1014072,-0.1015726,-34.40854,28.40274,4.576546,1019.956
2.59717083,2.097159,-2.236119,14.19672,0.967598,-0.1206156,-0.1189674,-34.40854,28.40274,4.576546,1019.956
2.607160092,3.019602,-1.576001,14.86931,0.9777365,-0.1419473,-0.1195827,-34.40854,28.40274,4.576546,1019.956
2.617149353,4.434015,-2.056087,16.15336,0.9787626,-0.1684093,-0.1120806,-34.40854,28.40274,4.576546,1019.956
2.627138615,5.848427,-1.45598,17.80427,0.9795849,-0.1803719,-0.09360626,-35.176,29.51414,4.97377,1019.958
2.637127876,5.356457,-1.876055,19.82206,0.9809959,-0.2009824,-0.08499279,-35.176,29.51414,4.97377,1019.958
2.647117138,4.98748,-1.335958,21.7787,0.9834923,-0.2006084,-0.07391975,-35.176,29.51414,4.97377,1019.958
2.657105923,5.602442,-0.2557657,22.69587,0.976073,-0.2169959,-0.0622493,-35.176,29.51414,4.97377,1019.958
2.667095184,4.372519,1.664577,23.24618,0.9624674,-0.2492585,-0.0750331,-35.176,29.51414,4.97377,1019.959
2.677084446,4.495511,1.784599,23.97992,0.9618976,-0.2514317,-0.09531796,-34.05874,29.52498,4.122795,1019.959
2.687073708,6.832366,2.084652,24.83595,0.9648497,-0.2547329,-0.1007213,-34.05874,29.52498,4.122795,1019.959
2.697062969,11.81356,2.684759,26.73144,0.9759507,-0.2736815,-0.09598257,-34.05874,29.52498,4.122795,1019.959
2.707052231,16.30278,3.824963,29.29953,0.9853057,-0.2728222,-0.07723439,-34.05874,29.52498,4.122795,1019.962
2.717041493,17.28672,4.665113,33.27395,0.9835114,-0.2783383,-0.06869334,-34.05874,29.52498,4.122795,1019.962
2.727030754,19.86956,7.425606,37.24838,0.9939947,-0.2556492,-0.03782951,-33.69893,30.27404,4.119795,1019.962
2.737019062,22.32941,8.56581,41.65082,0.9737329,-0.2818014,-0.004648,-33.69893,30.27404,4.119795,1019.962
2.747008324,21.28397,9.285938,45.38066,0.9483926,-0.2977366,0.02593928,-33.69893,30.27404,4.119795,1019.958
2.756997585,22.69838,10.78621,46.72585,0.9534789,-0.3277732,0.0492198,-33.69893,30.27404,4.119795,1019.958
2.766986847,22.20641,14.32684,47.27615,0.9180537,-0.3949084,0.0270111,-33.69893,30.27404,4.119795,1019.958
2.776975632,19.86956,14.86693,47.82646,0.8992022,-0.389292,-0.0112591,-32.96981,31.0271,3.338776,1019.958
2.786964893,17.34822,12.52652,48.37677,0.8840405,-0.3695799,-0.0405198,-32.96981,31.0271,3.338776,1019.961
2.796954155,16.48727,11.62636,48.49905,0.9062356,-0.3293047,-0.03288533,-32.96981,31.0271,3.338776,1019.961
2.806943417,18.45515,11.8664,46.6647,0.8887816,-0.3221236,-0.07690524,-32.96981,31.0271,3.338776,1019.961
2.816932678,19.1931,5.925338,44.64692,0.8694844,-0.3217594,-0.1244605,-32.96981,31.0271,3.338776,1019.961
2.82692194,22.57539,2.804781,42.50685,0.8970219,-0.3222667,-0.1646381,-31.50184,32.53199,3.324303,1019.962
2.836911201,27.80257,2.804781,41.03937,0.8960621,-0.3538327,-0.1789322,-31.50184,32.53199,3.324303,1019.962
2.846900463,31.79982,1.604567,40.42792,0.8901192,-0.3696458,-0.2433701,-31.50184,32.53199,3.324303,1019.962
2.856889248,38.25692,-2.236119,40.30563,0.9225177,-0.3608013,-0.1763948,-31.50184,32.53199,3.324303,1019.962
2.866878509,43.66858,-0.9158835,40.85593,0.9245802,-0.3393403,-0.1720024,-31.50184,32.53199,3.324303,1019.96
2.876867294,49.08025,-3.736387,40.91708,0.9416785,-0.3034555,-0.1345801,-30.01951,33.29122,3.30859,1019.96
2.886856556,49.57222,-5.536709,41.58967,0.9657645,-0.3026334,-0.09714212,-30.01951,33.29122,3.30859,1019.96
2.896845341,44.22205,-3.256302,39.9999,0.9648065,-0.2569838,-0.1147491,-30.01951,33.29122,3.30859,1019.96
2.906834602,39.73283,-1.816044,38.34899,0.9463957,-0.2278244,-0.08834641,-30.01951,33.29122,3.30859,1019.961
2.916823864,36.35054,-0.1357442,37.06494,0.9415905,-0.2072975,-0.09453107,-30.01951,33.29122,3.30859,1019.961
2.926813126,34.38266,2.384706,35.35288,0.9537306,-0.2075058,-0.1018421,-28.91502,33.98553,2.523232,1019.961
2.936802387,32.78376,1.124481,34.98602,0.9564119,-0.1966321,-0.1083243,-28.91502,33.98553,2.523232,1019.961
2.946791649,28.97099,3.404888,34.43571,0.9507726,-0.1895449,-0.1326732,-28.91502,33.98553,2.523232,1019.961
2.95678091,27.1876,1.844609,34.49685,0.9527137,-0.2083658,-0.1114922,-28.91502,33.98553,2.523232,1019.961
2.966770172,21.22248,2.74477,34.74143,0.9724991,-0.2435274,-0.09036694,-28.91502,33.98553,2.523232,1019.961
2.976758957,13.10498,3.58492,34.00769,0.9598279,-0.2220228,-0.105146,-28.23508,34.0545,1.741781,1019.961
2.986748219,11.81356,5.505263,32.90709,0.9707055,-0.2325229,-0.1112683,-28.23508,34.0545,1.741781,1019.962
2.99673748,7.078351,9.165917,32.17334,0.9767097,-0.268986,-0.1170629,-28.23508,34.0545,1.741781,1019.962
3.006726742,5.909923,9.946056,32.47907,0.9697984,-0.31412,-0.1099891,-28.23508,34.0545,1.741781,1019.962
3.016716003,3.819053,10.06608,32.05106,0.9796751,-0.3490672,-0.1152885,-28.23508,34.0545,1.741781,1019.962
3.026705265,5.171969,10.7262,31.68419,0.9734188,-0.3511991,-0.1090397,-26.75915,35.12447,1.662104,1019.963
3.036693573,4.065037,11.92641,31.74533,0.9605237,-0.3504224,-0.1441014,-26.75915,35.12447,1.662104,1019.963
3.046682835,3.265587,9.345949,31.62304,0.9350432,-0.3396914,-0.1349869,-26.75915,35.12447,1.662104,1019.963
3.056672096,3.265587,6.10537,31.4396,0.915591,-0.3386419,-0.1256793,-26.75915,35.12447,1.662104,1019.963
3.066661358,2.589129,6.645467,30.03327,0.9131567,-0.3471177,-0.151413,-26.75915,35.12447,1.662104,1019.96
3.07665062,2.773618,6.525445,28.4435,0.9079966,-0.3621525,-0.1647726,-25.64623,35.50779,1.263119,1019.96
3.086639404,4.557007,6.465435,27.46518,0.9274328,-0.3801582,-0.1485028,-25.64623,35.50779,1.263119,1019.96
3.096628666,5.540946,7.485617,27.40404,0.9269489,-0.4070059,-0.1501537,-25.64623,35.50779,1.263119,1019.96
3.106617928,6.524885,6.645467,26.85373,0.9300852,-0.4036723,-0.1048059,-25.64623,35.50779,1.263119,1019.959
3.116607189,6.647878,7.72566,26.54801,0.938955,-0.4079803,-0.1016028,-25.64623,35.50779,1.263119,1019.959
3.126596451,5.110473,7.785671,25.93656,0.9325563,-0.4347647,-0.114293,-24.16634,36.26732,0.8605175,1019.959
3.136585712,4.495511,8.445788,25.14167,0.9369282,-0.4327992,-0.1104173,-24.16634,36.26732,0.8605175,1019.959
3.146574974,5.356457,8.985885,24.40793,0.9353688,-0.4227669,-0.0956971,-24.16634,36.26732,0.8605175,1019.96
3.156564236,5.417953,7.905692,24.04106,0.923063,-0.4142344,-0.09009778,-24.16634,36.26732,0.8605175,1019.96
3.166553021,3.265587,7.905692,23.67419,0.921606,-0.4091094,-0.07357752,-24.16634,36.26732,0.8605175,1019.96
3.176542282,0.8672354,8.505799,23.73534,0.9170418,-0.4271833,-0.07834805,-23.80895,37.01668,0.4706249,1019.96
3.186531544,-1.408124,8.505799,23.61305,0.9119918,-0.4396427,-0.06562863,-23.80895,37.01668,0.4706249,1019.959
3.196520805,-2.146078,8.805853,23.30732,0.9106269,-0.4440902,-0.06332542,-23.80895,37.01668,0.4706249,1019.959
3.206509113,-4.113956,8.625821,22.94045,0.9024917,-0.4496811,-0.05618985,-23.80895,37.01668,0.4706249,1019.959
3.216498375,-3.621986,9.706014,22.63473,0.9069012,-0.469943,-0.03409865,-23.80895,37.01668,0.4706249,1019.959
3.226487637,-4.544429,10.36613,21.71755,0.8897231,-0.4689791,-0.05178509,-22.70322,37.77282,0.0722599,1019.959
3.236476898,-4.667422,10.48615,21.47297,0.8899561,-0.4613951,-0.07037904,-22.70322,37.77282,0.0722599,1019.959
3.24646616,-3.498994,10.54616,21.47297,0.8782223,-0.454444,-0.05567126,-22.70322,37.77282,0.0722599,1019.959
3.256455422,-4.236948,10.54616,20.67809,0.879261,-0.4517559,-0.03682143,-22.70322,37.77282,0.0722599,1019.959
3.266444683,-6.881285,10.96624,19.51633,0.8832119,-0.4536894,-0.03400673,-22.70322,37.77282,0.0722599,1019.956
3.276433945,-9.402628,11.02625,18.17114,0.8893352,-0.4748241,-0.05337809,-21.9477,37.40678,0.06316566,1019.956
3.28642273,-10.94003,11.50634,16.94824,0.8949786,-0.4903572,-0.05429643,-21.9477,37.40678,0.06316566,1019.956
3.296411991,-10.14058,12.16645,16.2145,0.8990719,-0.52318,-0.04264259,-21.9477,37.40678,0.06316566,1019.956
3.306401253,-8.295697,12.28647,16.03107,0.9116018,-0.5641838,-0.03077287,-21.9477,37.40678,0.06316566,1019.959
3.316390514,-5.897346,12.82657,15.72534,0.9072988,-0.5709846,-0.03814551,-21.9477,37.40678,0.06316566,1019.959
3.326379776,-2.76104,13.0066,15.60305,0.8962276,-0.5686221,-0.008626456,-20.52773,38.16544,0.04815865,1019.959
3.336369038,0.1292812,12.34649,15.84763,0.8801646,-0.5368941,0.01108266,-20.52773,38.16544,0.04815865,1019.959
3.346358299,2.281648,12.28647,15.48076,0.8481029,-0.5102546,0.02835729,-20.52773,38.16544,0.04815865,1019.959
3.356347084,-0.3626884,11.56635,14.25786,0.8232148,-0.5048985,0.03829311,-20.52773,38.16544,0.04815865,1019.959
3.366336346,-5.528368,10.00607,12.48466,0.8036766,-0.5069454,0.02391684,-20.52773,38.16544,0.04815865,1019.959
3.376325131,-8.357193,9.105906,10.65031,0.8093139,-0.5507049,0.01552825,-20.5421,38.9111,0.04939842,1019.959
3.386314392,-9.279636,8.865864,8.877107,0.8468726,-0.5535426,0.01376342,-20.5421,38.9111,0.04939842,1019.96
3.396303654,-7.311758,8.805853,7.715352,0.8516256,-0.5489984,0.008068327,-20.5421,38.9111,0.04939842,1019.96
3.406292439,-5.097895,7.845681,7.103902,0.8531409,-0.5792076,0.004390931,-20.5421,38.9111,0.04939842,1019.96
3.4162817,-4.236948,7.185563,6.981612,0.8681467,-0.6018655,-0.001107741,-20.5421,38.9111,0.04939842,1019.96
3.426270962,-3.867971,6.405424,7.103902,0.8488849,-0.593609,-0.01859292,-20.56131,39.65738,-0.7231445,1019.957
3.436260223,-0.9776503,5.325231,7.103902,0.839435,-0.5830151,-0.01777663,-20.56131,39.65738,-0.7231445,1019.957
3.446249485,0.4367621,4.665113,7.348482,0.8290304,-0.5946239,-0.001628062,-20.56131,39.65738,-0.7231445,1019.957
3.456238747,1.60519,5.025177,7.531917,0.8198602,-0.5996301,-0.002660073,-20.56131,39.65738,-0.7231445,1019.957
3.466228008,3.880549,5.26522,7.165047,0.8063681,-0.5869063,-0.01910477,-20.56131,39.65738,-0.7231445,1019.958
3.476216793,3.634564,5.025177,7.470772,0.810789,-0.5563376,0.000440016,-20.18228,39.66016,0.04640007,1019.958
3.486206055,2.466136,5.745306,7.165047,0.7924532,-0.5456194,-0.01746965,-20.18228,39.66016,0.04640007,1019.958
3.496195316,-0.9161541,3.944984,7.226192,0.7736629,-0.5797403,-0.00714413,-20.18228,39.66016,0.04640007,1019.958
3.506184578,-2.76104,2.204674,6.003292,0.7924777,-0.5174325,-0.007110149,-20.18228,39.66016,0.04640007,1019.958
3.51617384,-4.667422,0.7644165,4.168943,0.773245,-0.4602585,-0.03008145,-20.18228,39.66016,0.04640007,1019.958
3.526163101,-4.544429,-0.61583,2.579173,0.8049898,-0.5023867,0.0134274,-20.18714,39.66077,-0.7273808,1019.958
3.536152363,-4.421437,-1.335958,2.579173,0.8429826,-0.6327099,0.01271603,-20.18714,39.66077,-0.7273808,1019.958
3.546141625,-5.712857,-1.215937,2.946043,0.8856365,-0.6654869,-0.04428796,-20.18714,39.66077,-0.7273808,1019.959
3.556130409,-0.3011922,-0.9758942,3.312913,0.9134313,-0.60538,-0.01642918,-20.18714,39.66077,-0.7273808,1019.959
3.566119671,3.388579,0.2843308,3.802073,0.8915799,-0.5517147,2.83923E-05,-20.18714,39.66077,-0.7273808,1019.959
3.576108456,3.327083,0.6443951,3.190623,0.8584493,-0.5545316,-0.008497661,-19.81772,40.03668,-0.3441105,1019.959
3.586097717,1.851174,0.1042986,2.334593,0.8552655,-0.5663168,-0.00733471,-19.81772,40.03668,-0.3441105,1019.958
3.596086502,1.728182,0.4643629,1.233984,0.8426695,-0.5487237,-0.02173311,-19.81772,40.03668,-0.3441105,1019.958
3.606075764,4.864488,0.1042986,-0.1112059,0.8362209,-0.5396616,-0.0127865,-19.81772,40.03668,-0.3441105,1019.958
3.616065025,6.709373,0.1643093,-1.272961,0.8225663,-0.5454543,-0.0325968,-19.81772,40.03668,-0.3441105,1019.958
3.626054287,8.185283,-1.45598,-1.945555,0.8200389,-0.5354496,-0.01690747,-19.45316,40.41322,-0.7346191,1019.957
3.636043549,9.292213,-2.236119,-2.557005,0.8179709,-0.5263156,-0.008469517,-19.45316,40.41322,-0.7346191,1019.957
3.64603281,8.738748,-2.896237,-2.61815,0.8182669,-0.5094926,0.01171224,-19.45316,40.41322,-0.7346191,1019.957
3.656022072,7.816305,-3.376323,-2.86273,0.8105007,-0.4842394,0.01385801,-19.45316,40.41322,-0.7346191,1019.957
3.666011334,4.311022,-3.076269,-3.2296,0.8184233,-0.4909632,0.01411476,-19.45316,40.41322,-0.7346191,1019.959
3.676000118,0.06778497,-2.836226,-2.923875,0.8271782,-0.4917433,0.009219896,-19.44881,40.04074,-1.186611,1019.959
3.68598938,-2.945528,-3.13628,-2.190135,0.8551522,-0.5284591,0.01001869,-19.44881,40.04074,-1.186611,1019.959
3.695978642,-5.835849,-2.356141,-0.6615107,0.868213,-0.5506842,0.006470848,-19.44881,40.04074,-1.186611,1019.959
3.705967903,-7.127269,-0.7358514,0.6836789,0.8854946,-0.5649948,0.000208484,-19.44881,40.04074,-1.186611,1019.958
3.715957165,-6.512307,0.9444486,1.478564,0.8753523,-0.5474045,-0.01131572,-19.44881,40.04074,-1.186611,1019.958
3.725946426,-3.806475,2.024642,2.456883,0.8498437,-0.538957,-0.0138213,-19.82298,40.03735,-1.182375,1019.958
3.735935688,-3.56049,2.324695,2.823753,0.8454418,-0.5394517,-0.01814069,-19.82298,40.03735,-1.182375,1019.958
3.745924473,-3.56049,2.74477,3.312913,0.8505497,-0.5539504,-0.02384623,-19.82298,40.03735,-1.182375,1019.959
3.755913734,-3.376002,2.504727,3.679783,0.8394064,-0.5608072,-0.0345475,-19.82298,40.03735,-1.182375,1019.959
3.765902996,-3.806475,2.804781,4.046653,0.8493106,-0.5407401,-0.0268704,-19.82298,40.03735,-1.182375,1019.959
3.775892258,-6.327819,4.004995,4.841537,0.8498442,-0.4960711,-0.04258547,-19.8158,39.66452,-1.182993,1019.959
3.785881519,-7.865223,2.924802,4.046653,0.848765,-0.4892979,-0.03903205,-19.8158,39.66452,-1.182993,1019.956
3.795869827,-7.188766,0.8844379,3.557493,0.8268609,-0.5626567,-0.02006077,-19.8158,39.66452,-1.182993,1019.956
3.805859089,-6.450811,-0.07573352,3.679783,0.8575557,-0.6163548,-0.02453398,-19.8158,39.66452,-1.182993,1019.956
3.81584835,-5.159391,0.5843843,4.719248,0.8653693,-0.6205007,-0.03432655,-19.8158,39.66452,-1.182993,1019.956
3.825837612,-3.376002,1.244502,5.208407,0.8422625,-0.5582773,-0.0378733,-19.45073,40.41291,-0.3477287,1019.955
3.835826874,-3.437498,1.544556,5.147263,0.8011184,-0.5118735,-0.01135948,-19.45073,40.41291,-0.3477287,1019.955
3.845816135,-5.405376,0.5843843,4.719248,0.7945104,-0.4940321,-0.001704264,-19.45073,40.41291,-0.3477287,1019.955
3.855805397,-8.295697,-0.3157764,4.352378,0.8195117,-0.4972876,0.0134632,-19.45073,40.41291,-0.3477287,1019.955
3.865794182,-9.464125,-0.3757871,3.374058,0.833568,-0.5190755,0.01473738,-19.45073,40.41291,-0.3477287,1019.955
3.875783443,-7.619239,-0.3157764,2.212303,0.8177798,-0.5372708,0.00666533,-19.07656,40.4163,-0.351965,1019.955
3.885772705,-4.728918,-1.816044,1.111694,0.8172587,-0.5668508,-0.009507515,-19.07656,40.4163,-0.351965,1019.955
3.895761967,-1.961589,-2.836226,0.07222904,0.8458183,-0.5849058,-0.01545852,-19.07656,40.4163,-0.351965,1019.955
3.905751228,0.3752659,-2.056087,-0.8449457,0.8721327,-0.5826656,-0.007866009,-19.07656,40.4163,-0.351965,1019.955
3.91574049,1.297709,-0.6758407,-1.63983,0.875568,-0.5628672,-0.02327641,-19.07656,40.4163,-0.351965,1019.955
3.925729752,4.434015,-1.095916,-2.067845,0.8698263,-0.5372798,-0.007646876,-19.06452,40.04285,0.421196,1019.955
3.935718536,7.078351,-0.9158835,-2.37357,0.8734942,-0.5250123,-0.007837143,-19.06452,40.04285,0.421196,1019.956
3.945707798,6.77087,-1.035905,-1.700975,0.8690236,-0.5192661,-0.00428786,-19.06452,40.04285,0.421196,1019.956
3.95569706,5.233465,-0.61583,-0.7226557,0.875596,-0.5328127,-0.006606399,-19.06452,40.04285,0.421196,1019.956
3.965686321,2.343144,-0.3157764,0.5002439,0.8687789,-0.5380744,-0.02211236,-19.06452,40.04285,0.421196,1019.956
3.975675583,1.051724,0.3443415,1.356274,0.864642,-0.5508568,-0.02048708,-19.05259,39.2975,0.0330658,1019.951
3.985664845,-0.3626884,0.4643629,2.151158,0.8428488,-0.5636393,-0.03801507,-19.05259,39.2975,0.0330658,1019.951
3.995654106,0.006288783,0.8244272,2.212303,0.8390145,-0.5708621,-0.04973722,-19.05259,39.2975,0.0330658,1019.951
4.005643368,2.035663,1.244502,2.090014,0.827423,-0.5806221,-0.06291889,-19.05259,39.2975,0.0330658,1019.951
4.015632153,4.311022,1.06447,1.233984,0.8130759,-0.5662942,-0.05474843,-19.05259,39.2975,0.0330658,1019.951
4.025621414,5.848427,0.5243737,0.133374,0.799964,-0.5416155,-0.0521006,-19.45791,40.78574,-0.3471088,1019.951
4.035610676,7.139847,-1.095916,-1.63983,0.7962264,-0.5245562,-0.05356417,-19.45791,40.78574,-0.3471088,1019.951
4.045599937,8.123786,-1.816044,-3.657615,0.8044229,-0.5181592,-0.04815441,-19.45791,40.78574,-0.3471088,1019.951
4.055589199,8.677252,-3.676377,-4.941659,0.8165166,-0.508893,-0.03402527,-19.45791,40.78574,-0.3471088,1019.952
4.065577507,8.554259,-3.97643,-5.308529,0.8441908,-0.5248098,-0.01871931,-19.45791,40.78574,-0.3471088,1019.952
4.075566769,6.955359,-3.97643,-5.002804,0.8668949,-0.5363668,-0.00615895,-19.44598,40.04038,-0.7352371,1019.952
4.08555603,5.356457,-2.776216,-4.146775,0.8807256,-0.5459518,-0.0045694,-19.44598,40.04038,-0.7352371,1019.952
4.095545292,4.495511,-1.636012,-3.535325,0.8849024,-0.5313804,0.005894335,-19.44598,40.04038,-0.7352371,1019.947
4.105534554,3.634564,-0.4958085,-2.86273,0.8853089,-0.5246376,0.01329107,-19.44598,40.04038,-0.7352371,1019.947
4.115523815,2.773618,-0.195755,-2.12899,0.8625574,-0.5341879,0.008377507,-19.44598,40.04038,-0.7352371,1019.947
4.125513077,1.60519,-0.1357442,-1.63983,0.8494992,-0.5420827,7.075816E-05,-19.44598,40.04038,-0.7352371,1019.947
4.135501862,0.8057392,0.2843308,-1.700975,0.8412589,-0.5404173,0.01221098,-19.44598,40.04038,-0.7352371,1019.946
4.145491123,-0.1167036,0.1643093,-1.76212,0.8357767,-0.538355,-0.001670167,-19.44598,40.04038,-0.7352371,1019.946
4.155480385,0.3137697,0.8844379,-2.49586,0.8334153,-0.5479248,-0.0187614,-19.44598,40.04038,-0.7352371,1019.946
4.165469646,1.236213,0.3443415,-2.679295,0.8386441,-0.5664331,-0.01686317,-19.44598,40.04038,-0.7352371,1019.946
4.175458908,3.265587,0.5843843,-2.37357,0.8395277,-0.5629429,-0.02111477,-19.81297,39.66416,-0.7316189,1019.945
4.18544817,5.540946,1.364524,-2.0067,0.8449787,-0.5409167,-0.01865707,-19.81297,39.66416,-0.7316189,1019.945
4.195437431,5.602442,1.544556,-1.517541,0.8389266,-0.5288403,-0.0154163,-19.81297,39.66416,-0.7316189,1019.945
4.205426216,3.880549,1.364524,-1.028381,0.8335217,-0.5217882,-0.001229215,-19.81297,39.66416,-0.7316189,1019.945
4.215415478,1.543694,-0.1357442,-0.9060906,0.8341588,-0.5314779,-0.006299953,-19.81297,39.66416,-0.7316189,1019.946
4.225404739,-0.4856807,-0.5558193,-0.9672356,0.8415638,-0.5381435,-0.01085562,-19.82015,40.03699,-0.7310009,1019.946
4.235394001,-0.4241846,-0.7958621,-0.8449457,0.8495461,-0.5496832,-0.01554044,-19.82015,40.03699,-0.7310009,1019.946
4.245383263,-0.05520741,-0.8558729,-0.9060906,0.84527,-0.5588853,-0.02586542,-19.82015,40.03699,-0.7310009,1019.946
4.255372524,1.60519,-1.095916,-1.028381,0.8427693,-0.5517504,-0.01458565,-19.82015,40.03699,-0.7310009,1019.947
4.265361786,3.265587,-1.335958,-1.395251,0.8463533,-0.5609802,-0.01436488,-19.82015,40.03699,-0.7310009,1019.947
4.275351048,4.864488,-2.116098,-1.395251,0.8436658,-0.5723094,-0.01030306,-19.81297,39.66416,-0.7316189,1019.947
4.285339832,5.909923,-2.116098,-1.334106,0.8397784,-0.5723871,-0.008834343,-19.81297,39.66416,-0.7316189,1019.947
4.295329094,6.340396,-2.236119,-1.089526,0.8250647,-0.5366474,0.004706603,-19.81297,39.66416,-0.7316189,1019.948
4.305318356,5.725435,-1.696023,-0.3557858,0.8250225,-0.5069111,0.008843893,-19.81297,39.66416,-0.7316189,1019.948
4.315307617,4.065037,-1.395969,-0.05006092,0.8262314,-0.4918167,0.0135598,-19.81297,39.66416,-0.7316189,1019.948
4.325296879,-0.1167036,-1.095916,0.7448239,0.8279399,-0.5031065,0.01952068,-19.44881,40.04074,-1.186611,1019.948
4.335286141,-3.498994,-0.7358514,2.028868,0.8423333,-0.5142532,0.02877405,-19.44881,40.04074,-1.186611,1019.944
4.345275402,-4.482933,0.7644165,2.823753,0.8452761,-0.5184718,0.0190116,-19.44881,40.04074,-1.186611,1019.944
4.355264187,-5.34388,1.424534,3.496348,0.8415321,-0.5305758,0.007163299,-19.44881,40.04074,-1.186611,1019.944
4.365253449,-5.712857,1.304513,3.618638,0.8456456,-0.5403584,0.01266542,-19.44881,40.04074,-1.186611,1019.944
4.37524271,-6.14333,1.964631,3.679783,0.8449082,-0.5572869,-0.000290185,-19.82298,40.03735,-1.182375,1019.943
4.385231495,-5.282383,2.144663,3.435203,0.8516809,-0.5598979,-0.01629895,-19.82298,40.03735,-1.182375,1019.943
4.395220757,-3.683483,2.684759,3.251768,0.8556641,-0.5670568,-0.02421694,-19.82298,40.03735,-1.182375,1019.943
4.405209541,-2.207574,3.524909,3.251768,0.8492177,-0.5617493,-0.02644674,-19.82298,40.03735,-1.182375,1019.943
4.415198803,0.6212507,3.884974,3.557493,0.8692412,-0.5667226,-0.03393212,-19.82298,40.03735,-1.182375,1019.944
4.425188065,0.6212507,6.10537,4.535813,0.8884387,-0.5225796,-0.02666021,-20.20434,40.40679,-1.177517,1019.944
4.435177326,-2.453559,6.285402,5.942147,0.886674,-0.5592112,-0.02855435,-20.20434,40.40679,-1.177517,1019.944
4.445166588,-2.084582,5.025177,8.204512,0.8835263,-0.6685656,-3.41E-05,-20.20434,40.40679,-1.177517,1019.944
4.45515585,-3.806475,4.125017,11.93436,0.8818068,-0.7349403,-0.005583951,-20.20434,40.40679,-1.177517,1019.947
4.465145111,-5.220887,5.505263,14.19672,0.8493748,-0.6759838,-0.03034966,-20.20434,40.40679,-1.177517,1019.947
4.475133896,-3.621986,6.825499,14.31901,0.8015772,-0.5155553,-0.02735431,-19.44163,39.66791,-1.187231,1019.947
4.485123158,-2.146078,6.465435,12.79039,0.7545211,-0.4154271,-0.007127426,-19.44163,39.66791,-1.187231,1019.947
4.495112419,-2.638047,4.125017,10.16115,0.7627761,-0.4058749,0.01763234,-19.44163,39.66791,-1.187231,1019.949
4.505101681,-3.314505,3.104834,7.470772,0.7798049,-0.4347577,0.00521604,-19.44163,39.66791,-1.187231,1019.949
4.515090943,-4.728918,0.5843843,4.658103,0.7951561,-0.4792499,-0.01048115,-19.44163,39.66791,-1.187231,1019.949
4.525080204,-3.376002,-0.9158835,3.068333,0.8572845,-0.5090225,0.01965753,-18.70765,40.42036,-1.194468,1019.949
4.535069466,-3.683483,-0.6758407,1.967723,0.8629549,-0.6083956,0.006466074,-18.70765,40.42036,-1.194468,1019.95
4.545058727,-2.26907,-0.3157764,2.090014,0.8941637,-0.6371854,0.002630195,-18.70765,40.42036,-1.194468,1019.95
4.555047512,-0.6701694,0.8844379,2.884898,0.8872046,-0.58285,-0.0137505,-18.70765,40.42036,-1.194468,1019.95
4.565036774,4.495511,3.104834,2.518028,0.8703683,-0.4550148,0.01325315,-18.70765,40.42036,-1.194468,1019.95
4.575026035,4.126534,4.185027,2.028868,0.8628682,-0.437833,0.03445879,-19.0718,40.04377,-0.7394753,1019.954
4.585015297,0.6212507,4.665113,2.334593,0.8642381,-0.4922196,0.01281812,-19.0718,40.04377,-0.7394753,1019.954
4.595004559,-2.146078,4.065006,3.007188,0.8766591,-0.5574792,0.01250309,-19.0718,40.04377,-0.7394753,1019.954
4.60499382,-2.699543,4.545092,3.863218,0.8779818,-0.5779001,0.007151822,-19.0718,40.04377,-0.7394753,1019.954
4.614983082,-3.806475,5.505263,4.046653,0.8590333,-0.58391,-0.002512956,-19.0718,40.04377,-0.7394753,1019.952
4.624971867,-4.482933,5.985349,4.291233,0.835166,-0.5602431,-0.008973408,-19.07899,40.41661,-0.7388554,1019.952
4.634961128,-4.482933,5.625285,3.985508,0.8120052,-0.5492272,-0.01817258,-19.07899,40.41661,-0.7388554,1019.952
4.64495039,-4.05246,4.125017,3.435203,0.8005037,-0.5379714,-0.03225945,-19.07899,40.41661,-0.7388554,1019.952
4.654939652,-4.298444,2.864792,2.028868,0.7936103,-0.5304138,-0.02093996,-19.07899,40.41661,-0.7388554,1019.953
4.664928913,-4.544429,2.624749,0.7448239,0.7911343,-0.53505,-0.04175739,-18.69763,40.04717,-0.7437134,1019.953
4.674918175,-3.683483,1.484545,-0.9060906,0.8086485,-0.5582971,-0.03717134,-18.69763,40.04717,-0.7437134,1019.953
4.684907437,-2.453559,0.2843308,-2.190135,0.812254,-0.5666357,-0.03066527,-18.69763,40.04717,-0.7437134,1019.953
4.694896698,-0.9776503,-0.1357442,-2.801585,0.8249515,-0.5655818,-0.02253212,-18.69763,40.04717,-0.7437134,1019.954
4.704885483,0.8057392,-0.5558193,-3.046165,0.8312746,-0.5645307,-0.02110142,-18.69763,40.04717,-0.7437134,1019.954
4.714874745,1.482197,-1.335958,-3.046165,0.826912,-0.5655789,-0.020618,-18.69521,40.04686,-0.356823,1019.954
4.724864006,0.9902278,-1.636012,-2.37357,0.8427936,-0.5518028,-0.01073331,-18.69521,40.04686,-0.356823,1019.954
4.734853268,-0.4241846,-1.876055,-1.700975,0.8436329,-0.5425926,-0.004721145,-18.69521,40.04686,-0.356823,1019.955
4.744842529,-2.330566,-1.816044,-0.8449457,0.8489915,-0.5387648,0.006903671,-18.69521,40.04686,-0.356823,1019.955
4.754831791,-3.191513,-1.936066,0.07222904,0.8533098,-0.5592989,0.01309134,-18.69521,40.04686,-0.356823,1019.955
4.764821052,-4.05246,-1.215937,0.6836789,0.857041,-0.5768136,0.01213459,-19.0718,40.04377,-0.7394753,1019.955
4.774809837,-4.298444,-0.7958621,1.539709,0.8524593,-0.5915689,0.01467551,-19.0718,40.04377,-0.7394753,1019.956
4.784799099,-4.544429,0.2243201,2.273448,0.8514406,-0.5863318,0.02348807,-19.0718,40.04377,-0.7394753,1019.956
4.794788361,-4.05246,1.964631,2.518028,0.8396772,-0.5891603,0.003259873,-19.0718,40.04377,-0.7394753,1019.956
4.807274818,-2.023085,2.324695,2.579173,0.8372234,-0.5900943,-0.002528809,-19.0718,40.04377,-0.7394753,1019.956
4.81726408,-0.4241846,1.544556,2.823753,0.8224754,-0.5848645,-0.008078211,-18.32821,40.42308,-0.3604412,1019.956
4.827253342,-0.05520741,1.364524,2.762608,0.8253106,-0.5799463,-0.007488591,-18.32821,40.42308,-0.3604412,1019.956
4.837242603,0.006288783,1.304513,2.395738,0.8234374,-0.5848238,-0.01001041,-18.32821,40.42308,-0.3604412,1019.956
4.847231865,-0.8546579,0.4043522,2.212303,0.8163742,-0.574089,-0.01691386,-18.32821,40.42308,-0.3604412,1019.956
4.857221127,-1.961589,-0.3757871,1.967723,0.8199289,-0.5781,-0.005478832,-18.32821,40.42308,-0.3604412,1019.957
4.867209434,-2.146078,-0.195755,2.212303,0.8221873,-0.566434,0.001068922,-17.95647,40.42678,-0.7515697,1019.957
4.877198696,-1.346627,-0.01572281,2.212303,0.8293004,-0.557942,-0.005021856,-17.95647,40.42678,-0.7515697,1019.957
4.887187958,-0.6701694,0.1042986,1.967723,0.8240091,-0.5605083,-0.001681002,-17.95647,40.42678,-0.7515697,1019.957
4.897177219,-0.3011922,-0.01572281,1.906578,0.8280817,-0.5758278,-0.01992585,-17.95647,40.42678,-0.7515697,1019.96
4.907166481,0.06778497,0.2243201,1.845433,0.833879,-0.570951,-0.01309424,-17.95647,40.42678,-0.7515697,1019.96
4.917155266,-0.4856807,-0.01572281,2.151158,0.8309051,-0.5694779,-0.01689067,-18.32578,40.42278,0.0264492,1019.96
4.927144527,-1.223635,-0.2557657,2.212303,0.8386507,-0.5645722,-0.01007111,-18.32578,40.42278,0.0264492,1019.96
4.937133789,-3.376002,0.7044058,2.395738,0.8310654,-0.5745095,-0.005941338,-18.32578,40.42278,0.0264492,1019.96
4.947123051,-3.683483,-0.4357978,2.762608,0.8318529,-0.5651882,-0.008115391,-18.32578,40.42278,0.0264492,1019.96
4.957112312,-1.777101,-0.2557657,2.701463,0.8283533,-0.5594209,-0.005053678,-18.32578,40.42278,0.0264492,1019.96
4.967101574,-0.6701694,-0.3757871,2.456883,0.8268702,-0.5622078,-0.0171589,-18.3354,40.79592,-0.3598213,1019.96
4.977090836,-0.239696,0.2243201,1.906578,0.8187076,-0.5672714,-0.01289997,-18.3354,40.79592,-0.3598213,1019.961
4.98707962,0.8057392,-0.195755,1.723143,0.8143211,-0.5663933,-0.01043992,-18.3354,40.79592,-0.3598213,1019.961
4.997068882,0.8057392,-0.3757871,0.9894037,0.8165094,-0.5545768,-0.01496764,-18.3354,40.79592,-0.3598213,1019.961
5.007058144,0.6212507,-0.61583,0.8059688,0.812292,-0.5601553,-0.004485365,-18.3354,40.79592,-0.3598213,1019.961
5.017047405,0.5597545,-0.6758407,0.133374,0.8151571,-0.5576451,-0.006366532,-17.95404,40.42648,-0.3646793,1019.954
5.027036667,-0.6701694,-1.155926,-0.2946409,0.8196135,-0.5596106,-0.000665585,-17.95404,40.42648,-0.3646793,1019.954
5.037025929,-1.46962,-1.095916,-0.4169308,0.8233415,-0.5507534,-0.001425693,-17.95404,40.42648,-0.3646793,1019.954
5.04701519,-0.3626884,-1.275948,-0.6003658,0.8208304,-0.5492207,-0.009077475,-17.95404,40.42648,-0.3646793,1019.954
5.057003975,0.1292812,-1.45598,-0.7838007,0.8224666,-0.556137,-0.001558434,-17.95404,40.42648,-0.3646793,1019.956
5.066993237,0.3137697,-1.095916,-1.089526,0.825488,-0.5628682,-0.006086996,-18.70957,40.79253,-0.3555851,1019.956
5.076982498,0.2522736,-1.275948,-1.089526,0.8260863,-0.5687248,-0.005759842,-18.70957,40.79253,-0.3555851,1019.956
5.08697176,-0.1167036,-1.816044,-1.211816,0.8352113,-0.5622151,-0.00757924,-18.70957,40.79253,-0.3555851,1019.956
5.096961021,0.4367621,-1.395969,-1.395251,0.8425815,-0.561775,0.003945222,-18.70957,40.79253,-0.3555851,1019.955
5.106950283,-0.05520741,-1.335958,-1.517541,0.8312434,-0.5546204,0.004203711,-18.70957,40.79253,-0.3555851,1019.955
5.116939545,-0.7931617,-0.9758942,-1.700975,0.8389342,-0.5491285,0.003812747,-18.32821,40.42308,-0.3604412,1019.955
5.126928806,-1.223635,-0.8558729,-1.456396,0.8341444,-0.5549996,-0.000642398,-18.32821,40.42308,-0.3604412,1019.955
5.136917591,-0.7316656,-1.155926,-1.517541,0.8331468,-0.5512139,0.007169226,-18.32821,40.42308,-0.3604412,1019.955
5.146906853,-0.6701694,-0.01572281,-1.395251,0.8389969,-0.5548877,-0.003561769,-18.32821,40.42308,-0.3604412,1019.955
5.156896114,-1.162139,-0.1357442,-1.334106,0.8431074,-0.5646638,0.001458807,-18.32821,40.42308,-0.3604412,1019.955
5.166885376,-1.223635,-0.195755,-0.9672356,0.8393584,-0.5716013,0.004677093,-18.32103,40.05025,-0.3610611,1019.955
5.176874638,-1.654108,0.04428791,-1.028381,0.8408176,-0.5673565,0.0173017,-18.32103,40.05025,-0.3610611,1019.956
5.186863899,-2.392063,0.2843308,-0.6615107,0.8382882,-0.5653161,0.008217908,-18.32103,40.05025,-0.3610611,1019.956
5.196853161,-2.084582,0.04428791,-0.4780758,0.8373677,-0.5706018,0.000862028,-18.32103,40.05025,-0.3610611,1019.956
5.206841946,-1.838597,-0.2557657,-0.2334959,0.8276477,-0.5703244,0.0057503,-18.32103,40.05025,-0.3610611,1019.956
5.216831207,-1.715605,0.1042986,-0.2946409,0.8242803,-0.5728093,0.005226767,-17.94443,40.05334,0.02159119,1019.957
5.226820469,-0.6701694,0.3443415,-0.05006092,0.827148,-0.5726479,-0.003459072,-17.94443,40.05334,0.02159119,1019.957
5.236809731,-0.547177,0.4643629,0.133374,0.8256497,-0.5744652,-0.01505752,-17.94443,40.05334,0.02159119,1019.957
5.246798992,-0.7931617,0.3443415,0.316809,0.8233086,-0.5751728,-0.001571883,-17.94443,40.05334,0.02159119,1019.957
5.256788254,-1.039147,0.5843843,0.8059688,0.8247722,-0.5779684,-0.009842831,-17.94443,40.05334,0.02159119,1019.954
5.266777515,-0.9776503,0.2843308,0.9894037,0.8314853,-0.5752954,-0.01945277,-18.33064,40.42339,-0.7473316,1019.954
5.276766777,-1.100643,-0.2557657,1.233984,0.8276254,-0.574495,-0.01073568,-18.33064,40.42339,-0.7473316,1019.954
5.286755562,-2.576551,0.1643093,1.295129,0.8246908,-0.5745124,-0.01264378,-18.33064,40.42339,-0.7473316,1019.954
5.296744824,-2.26907,0.1042986,1.478564,0.8255478,-0.5676839,-0.01102857,-18.33064,40.42339,-0.7473316,1019.954
5.306734085,-2.023085,0.4643629,1.233984,0.8195939,-0.5651932,-0.02104175,-18.33064,40.42339,-0.7473316,1019.954
5.316723347,-2.207574,-0.4357978,1.233984,0.8220769,-0.5699464,-0.02792455,-18.32578,40.42278,0.0264492,1019.954
5.326712608,-1.285131,-0.3157764,0.9894037,0.822979,-0.5650901,-0.02491518,-18.32578,40.42278,0.0264492,1019.954
5.33670187,-0.9161541,-0.9158835,0.9282588,0.8322977,-0.5632153,-0.009031028,-18.32578,40.42278,0.0264492,1019.955
5.346691132,-0.239696,-1.095916,0.5613889,0.8327062,-0.561164,-0.01572518,-18.32578,40.42278,0.0264492,1019.955
5.356679916,0.5597545,-0.5558193,0.4390989,0.8329914,-0.5513488,-0.01884669,-18.32578,40.42278,0.0264492,1019.955
5.366669178,1.051724,-0.7958621,0.316809,0.8388996,-0.5542099,-0.01751389,-18.69995,40.41939,0.03068733,1019.955
5.37665844,0.1907774,-0.5558193,-0.2334959,0.8287256,-0.5554172,-0.01169737,-18.69995,40.41939,0.03068733,1019.956
5.386647701,-0.7316656,-0.2557657,-0.3557858,0.8292537,-0.5625288,-0.02681742,-18.69995,40.41939,0.03068733,1019.956
5.396636963,-0.9776503,-0.2557657,-0.4780758,0.8346065,-0.5577509,-0.01324121,-18.69995,40.41939,0.03068733,1019.956
5.406626225,-0.3626884,-0.5558193,-0.5392208,0.8311942,-0.5568582,-0.01078718,-18.69995,40.41939,0.03068733,1019.956
5.416615486,-0.1781998,-0.4958085,-0.7838007,0.8312241,-0.5587977,-0.01180073,-17.94686,40.05364,-0.3652992,1019.953
5.426604748,0.1907774,-0.4958085,-0.7226557,0.8340986,-0.55537,-0.009322782,-17.94686,40.05364,-0.3652992,1019.953
5.436596394,0.4367621,-0.4958085,-1.028381,0.8346488,-0.559248,-0.01087134,-17.94686,40.05364,-0.3652992,1019.953
5.446582794,0.5597545,-0.3757871,-1.211816,0.8323697,-0.5680572,-0.01204643,-17.94686,40.05364,-0.3652992,1019.953
5.456572056,0.744243,0.2243201,-1.395251,0.8259956,-0.5657177,-0.01146267,-17.94686,40.05364,-0.3652992,1019.952
5.466561318,1.420701,0.4643629,-1.211816,0.8241439,-0.5701725,-0.009156439,-18.69278,40.04655,0.03006744,1019.952
5.476550579,1.359205,-0.195755,-1.578686,0.8255417,-0.5676709,-0.01199166,-18.69278,40.04655,0.03006744,1019.952
5.486539841,0.6827468,-0.4958085,-1.63983,0.8210397,-0.5660756,-0.02637298,-18.69278,40.04655,0.03006744,1019.952
5.496529102,0.3137697,-0.8558729,-1.395251,0.8304096,-0.5671232,-0.01104607,-18.69278,40.04655,0.03006744,1019.951
5.506517887,0.2522736,-1.095916,-1.395251,0.8335034,-0.5763537,-0.01130382,-18.69278,40.04655,0.03006744,1019.951
5.516507149,0.4367621,-0.4958085,-1.150671,0.829051,-0.5711153,-0.006322531,-17.5655,39.6842,-0.3701572,1019.951
5.52649641,0.3137697,-0.4357978,-0.7226557,0.8319553,-0.5700955,-0.006315371,-17.5655,39.6842,-0.3701572,1019.951
5.536485672,-0.3626884,-0.01572281,-0.7226557,0.826919,-0.5618441,-0.007996972,-17.5655,39.6842,-0.3701572,1019.95
5.546474934,-0.1781998,0.2843308,-0.6003658,0.8197002,-0.5663591,-0.007102246,-17.5655,39.6842,-0.3701572,1019.95
5.556464195,-0.547177,-0.07573352,-0.6615107,0.8261199,-0.5683283,0.000994369,-17.5655,39.6842,-0.3701572,1019.95
5.566453457,-0.547177,-0.07573352,-0.4780758,0.8281337,-0.575002,-0.00882514,-18.32821,40.42308,-0.3604412,1019.95
5.576442719,0.2522736,-0.61583,-0.2334959,0.8318948,-0.5685591,-0.01157449,-18.32821,40.42308,-0.3604412,1019.951
5.586431503,0.8057392,-0.61583,0.01108406,0.8338133,-0.5651853,-0.006201269,-18.32821,40.42308,-0.3604412,1019.951
5.596420765,0.6212507,-0.3757871,0.01108406,0.832379,-0.5676084,-0.009144563,-18.32821,40.42308,-0.3604412,1019.951
5.606410027,-0.1781998,-0.4357978,0.07222904,0.8397673,-0.567676,0.003811913,-18.32821,40.42308,-0.3604412,1019.951
5.616399288,-0.4856807,0.2243201,0.133374,0.834824,-0.5652492,-0.000428779,-17.94443,40.05334,0.02159119,1019.948
5.62638855,-0.4856807,0.2843308,0.255664,0.8337802,-0.5632393,-0.005669265,-17.94443,40.05334,0.02159119,1019.948
5.636377812,-0.1781998,0.3443415,0.07222904,0.8279901,-0.5639127,0.001577398,-17.94443,40.05334,0.02159119,1019.948
5.646367073,0.3752659,0.8244272,0.194519,0.8304583,-0.5672278,-0.00334139,-17.94443,40.05334,0.02159119,1019.948
5.656355858,0.5597545,1.004459,0.255664,0.8284522,-0.5666642,-0.01102141,-17.94443,40.05334,0.02159119,1019.948
5.66634512,0.8672354,0.4643629,0.6225339,0.8308306,-0.5627556,-0.008527838,-18.3354,40.79592,-0.3598213,1019.948
5.676334381,0.4982583,0.1042986,0.6836789,0.8261614,-0.5731048,-0.006836463,-18.3354,40.79592,-0.3598213,1019.948
5.686323643,-0.3626884,0.04428791,0.6836789,0.8211375,-0.564411,-0.005134651,-18.3354,40.79592,-0.3598213,1019.948
5.696312905,-0.7931617,0.04428791,0.8059688,0.8239514,-0.5594471,-0.007915827,-18.3354,40.79592,-0.3598213,1019.951
5.706302166,-0.05520741,0.1042986,0.6225339,0.8251089,-0.5701383,-0.01060709,-18.3354,40.79592,-0.3598213,1019.951
5.716291428,-0.3626884,-0.01572281,0.6836789,0.8270572,-0.5701092,-0.01061914,-18.30899,39.67681,0.4120998,1019.951
5.726280689,-0.3626884,-0.01572281,0.7448239,0.8181179,-0.5633084,-0.01761146,-18.30899,39.67681,0.4120998,1019.951
5.736269474,0.4367621,0.7044058,0.3779539,0.8216569,-0.5691606,-0.01441312,-18.30899,39.67681,0.4120998,1019.952
5.746258736,0.3752659,0.2243201,0.3779539,0.8216599,-0.5696356,-0.01538882,-18.30899,39.67681,0.4120998,1019.952
5.756247997,0.2522736,0.6443951,0.194519,0.8288786,-0.5655891,-0.01774079,-18.30899,39.67681,0.4120998,1019.952
5.766237259,-0.1167036,-0.1357442,0.316809,0.8251089,-0.5696698,-0.009149848,-18.31142,39.67712,0.02520943,1019.952
5.77622652,0.4367621,0.4643629,0.07222904,0.8307912,-0.5617336,-0.01187341,-18.31142,39.67712,0.02520943,1019.947
5.786215782,0.3752659,1.06447,-0.2334959,0.8313082,-0.5641341,-0.0143472,-18.31142,39.67712,0.02520943,1019.947
5.796205044,0.9287316,0.4643629,-0.2334959,0.8332653,-0.5655302,-0.01728635,-18.31142,39.67712,0.02520943,1019.947
5.806193829,1.297709,-0.195755,-0.05006092,0.8362484,-0.5665544,-0.01058806,-18.31142,39.67712,0.02520943,1019.947
5.81618309,0.9287316,-0.61583,0.07222904,0.8343362,-0.5685359,-0.01062647,-17.94686,40.05364,-0.3652992,1019.949
5.826172352,0.8672354,0.1042986,-0.2334959,0.8314106,-0.5690415,-0.01254718,-17.94686,40.05364,-0.3652992,1019.949
5.836161613,1.051724,-0.2557657,-0.3557858,0.8255382,-0.5695382,-0.01830217,-17.94686,40.05364,-0.3652992,1019.949
5.846150875,1.420701,-0.6758407,-0.2946409,0.8254668,-0.562354,-0.008000552,-17.94686,40.05364,-0.3652992,1019.949
5.856140137,2.650625,-0.5558193,-0.5392208,0.8263779,-0.5579856,-0.005003787,-17.94686,40.05364,-0.3652992,1019.95
5.866129398,3.265587,-0.7358514,-0.7838007,0.8253945,-0.5589175,-0.009356876,-18.3186,40.04995,0.02582932,1019.95
5.876118183,1.728182,-1.215937,-1.211816,0.8278358,-0.5593628,-0.009866091,-18.3186,40.04995,0.02582932,1019.95
5.886107445,1.359205,-1.395969,-1.334106,0.827911,-0.5632741,-0.009485467,-18.3186,40.04995,0.02582932,1019.95
5.896096706,1.666686,-1.275948,-1.089526,0.8333114,-0.5637544,-0.004234239,-18.3186,40.04995,0.02582932,1019.951
5.906085968,1.789678,-1.335958,-1.334106,0.8304011,-0.5642926,-0.003747242,-18.3186,40.04995,0.02582932,1019.951
5.91607523,1.420701,-0.9758942,-1.211816,0.8352715,-0.5651569,-0.006691845,-17.9421,39.68112,-0.7528095,1019.951
5.926064491,1.174716,-1.095916,-1.150671,0.8334405,-0.5715315,-0.006843792,-17.9421,39.68112,-0.7528095,1019.951
5.936053753,1.11322,-0.9758942,-0.9672356,0.8375664,-0.5808718,0.002041744,-17.9421,39.68112,-0.7528095,1019.952
5.946043015,0.9287316,-0.4357978,-0.6615107,0.8310679,-0.5768586,-0.01274601,-17.9421,39.68112,-0.7528095,1019.952
5.956031799,1.482197,-0.6758407,-0.4780758,0.8318685,-0.5638154,-0.001335951,-17.9421,39.68112,-0.7528095,1019.952
5.966021061,1.60519,-0.3157764,-0.3557858,0.8201994,-0.566378,-0.005179088,-18.69521,40.04686,-0.356823,1019.952
5.976010323,0.06778497,-0.9758942,-0.1112059,0.8274179,-0.5632684,-0.01044554,-18.69521,40.04686,-0.356823,1019.952
5.985999584,-0.7316656,-0.8558729,-0.3557858,0.8270397,-0.5667906,-0.003307695,-18.69521,40.04686,-0.356823,1019.952
5.995988846,-0.8546579,-0.7358514,-0.05006092,0.8276072,-0.5739873,-0.0121677,-18.69521,40.04686,-0.356823,1019.952
6.005978107,-0.05520741,-0.195755,-0.4169308,0.8313806,-0.5671021,-0.01153364,-18.69521,40.04686,-0.356823,1019.952
6.015967369,2.035663,1.244502,-0.6003658,0.8310662,-0.5712301,0.004259363,-18.32103,40.05025,-0.3610611,1019.953
6.025956154,2.158656,1.424534,-0.3557858,0.8216212,-0.5658028,-0.009990933,-18.32103,40.05025,-0.3610611,1019.953
6.035945416,1.11322,1.244502,-0.4169308,0.8249556,-0.5609034,-0.007478154,-18.32103,40.05025,-0.3610611,1019.953
6.045934677,2.343144,2.024642,-0.6003658,0.8318054,-0.5599301,0.000209598,-18.32103,40.05025,-0.3610611,1019.953
6.055923939,2.712121,2.024642,-0.4780758,0.8308368,-0.5618317,-0.004650267,-18.32103,40.05025,-0.3610611,1019.95
6.065913677,3.757556,2.324695,-0.3557858,0.8346258,-0.5531052,0.004220476,-18.32578,40.42278,0.0264492,1019.95
6.075902939,4.126534,2.084652,-0.05006092,0.8302211,-0.5521879,0.003791269,-18.32578,40.42278,0.0264492,1019.95
6.0858922,4.18803,2.444716,-0.3557858,0.8311585,-0.5530318,-0.004907752,-18.32578,40.42278,0.0264492,1019.95
6.095881462,3.450076,1.244502,-0.1723509,0.8313118,-0.5617983,-0.006579449,-18.32578,40.42278,0.0264492,1019.95
6.105870724,3.081098,0.5843843,-0.1112059,0.833702,-0.5593214,-0.006531434,-18.32578,40.42278,0.0264492,1019.95
6.115859985,3.019602,-0.1357442,-0.05006092,0.8355331,-0.5524783,-0.004922244,-18.32346,40.05056,-0.7479515,1019.95
6.125849247,2.40464,-0.3157764,-0.05006092,0.832,-0.5471076,-0.008614739,-18.32346,40.05056,-0.7479515,1019.95
6.135838032,1.912671,-1.035905,0.133374,0.8267986,-0.555492,-0.008314522,-18.32346,40.05056,-0.7479515,1019.951
6.145827293,0.006288783,-1.636012,0.194519,0.8201091,-0.5619654,-0.006510181,-18.32346,40.05056,-0.7479515,1019.951
6.155816555,-0.05520741,-1.576001,0.5002439,0.8289096,-0.563312,-0.005639148,-18.32346,40.05056,-0.7479515,1019.951
6.165805817,0.1292812,-0.1357442,0.5613889,0.8314564,-0.568671,-0.003866799,-17.95647,40.42678,-0.7515697,1019.951
6.175795078,1.174716,-0.5558193,0.316809,0.824603,-0.5719804,-0.01932231,-17.95647,40.42678,-0.7515697,1019.95
6.18578434,3.450076,-0.9758942,0.4390989,0.825036,-0.5690444,-0.01924963,-17.95647,40.42678,-0.7515697,1019.95
6.195773602,3.942045,-0.8558729,0.194519,0.8251061,-0.5687263,-0.006716905,-17.95647,40.42678,-0.7515697,1019.95
6.205762386,4.003541,-1.275948,0.4390989,0.822548,-0.5595931,0.001242517,-17.95647,40.42678,-0.7515697,1019.95
6.215751648,3.388579,-1.155926,0.4390989,0.8240032,-0.5595583,0.000270398,-18.32346,40.05056,-0.7479515,1019.951
6.22574091,3.265587,-1.996076,0.6836789,0.8244234,-0.5584701,-0.007412068,-18.32346,40.05056,-0.7479515,1019.951
6.235730171,2.589129,-2.776216,0.8671138,0.8223847,-0.5550235,-0.0116456,-18.32346,40.05056,-0.7479515,1019.951
6.245719433,2.589129,-2.896237,0.9282588,0.8370667,-0.5554245,-0.00211771,-18.32346,40.05056,-0.7479515,1019.951
6.255708695,2.589129,-2.596184,1.478564,0.8302571,-0.5546088,0.002283566,-18.32346,40.05056,-0.7479515,1019.952
6.265697956,2.40464,-2.476162,1.233984,0.8314806,-0.542358,0.000663731,-18.32346,40.05056,-0.7479515,1019.952
6.275687218,2.650625,-2.29613,1.050549,0.8392925,-0.5399386,0.01079101,-18.32346,40.05056,-0.7479515,1019.952
6.285676003,1.666686,-2.416152,1.172839,0.8381439,-0.5575064,0.008419747,-18.32346,40.05056,-0.7479515,1019.952
6.295665264,2.343144,-1.696023,1.233984,0.8430083,-0.5583576,0.004512059,-18.32346,40.05056,-0.7479515,1019.951
6.305654526,3.081098,-0.195755,0.8671138,0.8460184,-0.5613145,0.009715268,-18.32346,40.05056,-0.7479515,1019.951
6.315643787,3.388579,0.8844379,0.7448239,0.8473892,-0.5568801,0.00837514,-18.32346,40.05056,-0.7479515,1019.951
6.325633049,4.249526,2.144663,0.8671138,0.8460334,-0.5622842,0.009208497,-18.32346,40.05056,-0.7479515,1019.951
6.335622311,4.434015,3.164845,1.111694,0.8435531,-0.5594115,0.01074387,-18.32346,40.05056,-0.7479515,1019.952
6.345611572,4.065037,4.004995,1.356274,0.8357808,-0.5609791,0.009791126,-18.32346,40.05056,-0.7479515,1019.952
6.355600357,4.495511,4.485081,1.600854,0.8392598,-0.5634211,0.01355931,-18.32346,40.05056,-0.7479515,1019.952
6.365589619,4.372519,4.785134,1.295129,0.833784,-0.5604349,0.003555734,-18.71199,40.79284,-0.7424755,1019.952
6.37557888,3.69606,4.365059,1.539709,0.8271154,-0.5683596,0.004359145,-18.71199,40.79284,-0.7424755,1019.95
6.385568142,3.019602,3.344877,1.661999,0.8275997,-0.5669403,0.008246319,-18.71199,40.79284,-0.7424755,1019.95
6.395557404,1.789678,2.804781,1.784289,0.8261381,-0.568836,0.002426384,-18.71199,40.79284,-0.7424755,1019.95
6.405546665,1.728182,3.164845,1.723143,0.81971,-0.5635678,0.00308584,-18.71199,40.79284,-0.7424755,1019.95
6.415535927,2.958106,3.464899,1.723143,0.8244307,-0.5533298,0.00958069,-18.31911,39.67809,-1.199945,1019.95
6.425525189,4.864488,3.524909,1.600854,0.8205969,-0.5586787,0.003687505,-18.31911,39.67809,-1.199945,1019.95
6.435513973,6.2789,2.924802,1.600854,0.8168752,-0.5661436,0.00978243,-18.31911,39.67809,-1.199945,1019.95
6.445503235,7.016855,2.564738,1.539709,0.8242289,-0.5708241,0.002869513,-18.31911,39.67809,-1.199945,1019.95
6.455492497,8.185283,2.324695,1.661999,0.8211982,-0.5654788,0.001581715,-18.31911,39.67809,-1.199945,1019.95
6.465481758,9.169221,2.024642,1.539709,0.8217577,-0.567971,0.005849512,-18.34066,40.79659,-1.198086,1019.95
6.47547102,8.431267,1.424534,1.661999,0.8253865,-0.5810469,0.001635492,-18.34066,40.79659,-1.198086,1019.95
6.485460281,7.324336,0.8244272,1.784289,0.8182927,-0.5711836,-0.01299787,-18.34066,40.79659,-1.198086,1019.95
6.495449543,8.06229,1.124481,1.539709,0.8222719,-0.5694281,0.005808657,-18.34066,40.79659,-1.198086,1019.951
6.505438328,6.832366,0.1643093,1.906578,0.8322239,-0.5809844,0.004482584,-18.34066,40.79659,-1.198086,1019.951
6.51542759,5.786931,-0.07573352,1.845433,0.8266707,-0.5693954,0.008189268,-17.95697,40.05492,-1.977345,1019.951
6.525416851,5.110473,0.1042986,1.417419,0.829497,-0.5635206,0.01024875,-17.95697,40.05492,-1.977345,1019.951
6.535406113,4.18803,0.04428791,1.600854,0.8267944,-0.5743485,0.01336008,-17.95697,40.05492,-1.977345,1019.952
6.545395374,3.880549,-0.1357442,1.600854,0.8257242,-0.5685318,0.01544366,-17.95697,40.05492,-1.977345,1019.952
6.555384636,4.249526,0.6443951,1.906578,0.8276725,-0.5680342,0.01688885,-17.95697,40.05492,-1.977345,1019.952
6.565373898,4.741496,2.084652,1.661999,0.8251114,-0.5588946,0.02436673,-17.58998,40.43114,-1.980963,1019.952
6.575363636,4.802992,2.144663,1.906578,0.8237646,-0.5647868,0.02518748,-17.58998,40.43114,-1.980963,1019.949
6.585352898,4.065037,1.664577,1.967723,0.8260399,-0.5587819,0.01713757,-17.58998,40.43114,-1.980963,1019.949
6.595342159,3.388579,1.784599,1.845433,0.8284092,-0.5548538,0.01818652,-17.58998,40.43114,-1.980963,1019.949
6.605330944,3.450076,1.724588,1.967723,0.8261902,-0.5670733,0.01644158,-17.58998,40.43114,-1.980963,1019.949
6.615320206,3.573068,1.544556,1.967723,0.8262054,-0.5675745,0.01739205,-17.59241,40.43145,-2.367853,1019.951
6.625309467,4.003541,0.4043522,2.028868,0.8197592,-0.5613301,0.01807673,-17.59241,40.43145,-2.367853,1019.951
6.635298729,4.311022,1.484545,1.478564,0.8291522,-0.5680518,0.01976907,-17.59241,40.43145,-2.367853,1019.951
6.645287991,3.327083,3.104834,1.233984,0.8263264,-0.5711156,0.02645305,-17.59241,40.43145,-2.367853,1019.951
6.655277252,3.573068,3.104834,1.050549,0.8290859,-0.5650969,0.01791859,-17.59241,40.43145,-2.367853,1019.952
6.665266514,3.819053,2.924802,0.8059688,0.8316571,-0.5700397,0.02500053,-17.96415,40.42775,-1.976725,1019.952
6.675255776,3.265587,2.804781,0.9282588,0.8349888,-0.5637285,0.03140349,-17.96415,40.42775,-1.976725,1019.952
6.68524456,2.773618,2.384706,0.8059688,0.8335273,-0.5651558,0.0270408,-17.96415,40.42775,-1.976725,1019.952
6.695233822,1.851174,1.364524,0.9894037,0.8353879,-0.562126,0.02180747,-17.96415,40.42775,-1.976725,1019.954
6.705223084,0.8672354,0.5843843,0.8671138,0.8363135,-0.5615383,0.01555401,-17.96415,40.42775,-1.976725,1019.954
6.715212345,0.6212507,0.1042986,0.9282588,0.8305498,-0.5664871,0.01401937,-17.60677,41.17712,-2.366613,1019.954
6.725201607,0.4982583,-0.07573352,0.8059688,0.8290313,-0.5635737,0.01362256,-17.60677,41.17712,-2.366613,1019.954
6.735190868,-0.1167036,0.8844379,0.316809,0.8212741,-0.5665793,0.0107058,-17.60677,41.17712,-2.366613,1019.955
6.74518013,0.6212507,1.364524,-0.05006092,0.8206576,-0.5597465,0.01040387,-17.60677,41.17712,-2.366613,1019.955
6.755168915,1.60519,1.06447,-0.1112059,0.8196416,-0.55639,0.013869,-17.60677,41.17712,-2.366613,1019.955
6.765158176,2.589129,1.124481,0.07222904,0.8198221,-0.5661523,0.0136167,-18.33115,40.05153,-1.973106,1019.955
6.775147438,2.527633,1.424534,0.07222904,0.8226272,-0.5597632,0.01376262,-18.33115,40.05153,-1.973106,1019.957
6.7851367,2.158656,1.544556,-0.1723509,0.822264,-0.5642551,0.0203937,-18.33115,40.05153,-1.973106,1019.957
6.795125961,1.482197,1.484545,-0.2334959,0.8243838,-0.5730317,0.02159921,-18.33115,40.05153,-1.973106,1019.957
6.805115223,1.666686,1.304513,-0.05006092,0.8233942,-0.5739505,0.01628304,-18.33115,40.05153,-1.973106,1019.957
6.815104485,2.89661,0.9444486,-0.2946409,0.8220595,-0.5798689,0.01902995,-17.96901,40.42837,-2.750505,1019.952
6.825093746,4.065037,0.7044058,-0.4169308,0.8186592,-0.5799394,0.02049566,-17.96901,40.42837,-2.750505,1019.952
6.835082531,4.679999,0.7044058,-0.4169308,0.8196182,-0.5794237,0.01953916,-17.96901,40.42837,-2.750505,1019.952
6.845071793,5.110473,-0.195755,-0.2334959,0.8149034,-0.5901432,0.01255015,-17.96901,40.42837,-2.750505,1019.952
6.855061054,5.110473,-0.7958621,0.01108406,0.8211636,-0.5842699,0.01844089,-17.96901,40.42837,-2.750505,1019.952
6.865050316,4.557007,-0.6758407,0.07222904,0.8232033,-0.5839685,0.03433237,-17.59484,40.43176,-2.754744,1019.952
6.875039577,2.097159,-1.155926,0.6225339,0.8231662,-0.5862325,0.02126764,-17.59484,40.43176,-2.754744,1019.952
6.885028839,-0.4856807,-2.056087,1.356274,0.8240088,-0.5756235,0.03213309,-17.59484,40.43176,-2.754744,1019.952
6.895018101,-1.838597,-2.476162,1.478564,0.82133,-0.5620121,0.03394599,-17.59484,40.43176,-2.754744,1019.952
6.905007839,-1.715605,-1.696023,1.356274,0.8222948,-0.5624465,0.03103809,-17.59484,40.43176,-2.754744,1019.952
6.914997101,-1.100643,-1.696023,1.050549,0.817992,-0.5687789,0.0251227,-17.60445,40.8049,-3.141016,1019.952
6.924986362,-0.4241846,-1.816044,0.5613889,0.828097,-0.5622677,0.02426036,-17.60445,40.8049,-3.141016,1019.952
6.934975147,0.2522736,0.1042986,0.255664,0.824817,-0.5686902,0.02604362,-17.60445,40.8049,-3.141016,1019.953
6.944964409,0.3137697,0.7644165,0.133374,0.8258331,-0.5715782,0.02403574,-17.60445,40.8049,-3.141016,1019.953
6.95495367,0.4367621,0.4043522,0.07222904,0.8248047,-0.5691326,0.02266021,-17.97619,40.8012,-2.749886,1019.953
6.964942932,0.8672354,0.1643093,0.4390989,0.8271984,-0.5652567,0.02756149,-17.97619,40.8012,-2.749886,1019.953
6.974932194,0.9287316,0.1643093,0.4390989,0.8326375,-0.5691013,0.02887208,-17.97619,40.8012,-2.749886,1019.954
6.984921455,1.174716,0.5843843,0.3779539,0.8287113,-0.5653462,0.03573868,-17.97619,40.8012,-2.749886,1019.954
6.994910717,1.359205,0.7644165,0.194519,0.8276702,-0.5652168,0.02515077,-17.97619,40.8012,-2.749886,1019.954
7.004899979,2.097159,1.124481,0.07222904,0.824914,-0.5707735,0.03562401,-17.97619,40.8012,-2.749886,1019.954
7.014888763,3.142595,1.424534,0.01108406,0.8253558,-0.5687942,0.03422683,-17.97619,40.8012,-2.749886,1019.951
7.024878025,4.126534,1.604567,-0.1112059,0.8262815,-0.5672696,0.03088785,-17.97619,40.8012,-2.749886,1019.951
7.034867287,4.925984,1.424534,0.133374,0.8200279,-0.5717505,0.03033193,-17.97619,40.8012,-2.749886,1019.951
7.044856548,5.786931,1.304513,0.255664,0.8219848,-0.573615,0.02593554,-17.97619,40.8012,-2.749886,1019.951
7.05484581,6.893862,1.124481,0.6836789,0.8273998,-0.5764703,0.02630826,-17.59727,40.43207,-3.141636,1019.953
7.064835072,6.832366,0.8844379,0.6836789,0.8259423,-0.5736877,0.0355423,-17.59727,40.43207,-3.141636,1019.953
7.074824333,6.586381,0.5843843,1.050549,0.8234915,-0.5746284,0.03023516,-17.59727,40.43207,-3.141636,1019.953
7.084813118,6.032916,0.4043522,1.539709,0.8181824,-0.5748129,0.03797296,-17.59727,40.43207,-3.141636,1019.953
7.09480238,5.663939,-0.3757871,1.784289,0.8196255,-0.5742833,0.03653192,-17.59727,40.43207,-3.141636,1019.954
7.104791641,5.356457,-0.4357978,1.784289,0.821099,-0.5738192,0.0399063,-17.60728,40.80526,-3.592388,1019.954
7.114780903,5.110473,-0.07573352,1.600854,0.8192618,-0.5801806,0.03879127,-17.60728,40.80526,-3.592388,1019.954
7.127267361,4.864488,-0.2557657,1.539709,0.819764,-0.5811431,0.03828148,-17.60728,40.80526,-3.592388,1019.954
7.137256622,4.679999,-0.3157764,1.111694,0.8231679,-0.5787366,0.04458353,-17.60728,40.80526,-3.592388,1019.955
7.144748688,4.065037,-0.195755,1.233984,0.8225538,-0.5751897,0.03456245,-17.60728,40.80526,-3.592388,1019.955
7.157235146,3.511572,-0.3157764,1.295129,0.8253318,-0.5673364,0.03474622,-17.59727,40.43207,-3.141636,1019.955
7.167224407,3.573068,-0.195755,1.417419,0.8253377,-0.5682865,0.03279482,-17.59727,40.43207,-3.141636,1019.955
7.177213192,3.69606,0.04428791,1.417419,0.8243726,-0.5687891,0.03278823,-17.59727,40.43207,-3.141636,1019.951
7.187203407,3.880549,0.1643093,1.661999,0.8233683,-0.5673328,0.03235055,-17.59727,40.43207,-3.141636,1019.951
7.197192669,3.327083,0.1643093,1.906578,0.8258162,-0.5659171,0.03863339,-17.59727,40.43207,-3.141636,1019.951
7.207181454,2.589129,0.1042986,2.334593,0.8293036,-0.5716582,0.03364551,-17.6001,40.43243,-3.593008,1019.951
7.217170715,2.035663,-0.01572281,2.151158,0.8229927,-0.5727354,0.03414097,-17.6001,40.43243,-3.593008,1019.952
7.227159977,2.466136,0.04428791,2.090014,0.8275784,-0.5810726,0.04160409,-17.6001,40.43243,-3.593008,1019.952
7.237149239,2.589129,0.1042986,1.723143,0.8242322,-0.5840718,0.04299412,-17.6001,40.43243,-3.593008,1019.952
7.2471385,2.158656,-0.07573352,1.600854,0.8256421,-0.5820648,0.04062782,-17.6001,40.43243,-3.593008,1019.952
7.257127762,1.297709,0.2243201,1.295129,0.8212194,-0.5797027,0.04168109,-17.61446,41.17809,-3.591768,1019.953
7.267117024,0.8057392,0.4643629,1.172839,0.821198,-0.5801254,0.03685305,-17.61446,41.17809,-3.591768,1019.953
7.277106285,0.1907774,0.6443951,1.233984,0.8260534,-0.5804885,0.03295797,-17.61446,41.17809,-3.591768,1019.953
7.28709507,0.4367621,1.184492,1.172839,0.8191022,-0.5728067,0.03512815,-17.61446,41.17809,-3.591768,1019.953
7.297084332,0.6212507,1.244502,1.478564,0.8177801,-0.5768773,0.0456302,-17.61446,41.17809,-3.591768,1019.955
7.307073593,0.8057392,1.184492,1.600854,0.821529,-0.5704082,0.04095468,-17.60971,40.80556,-3.979279,1019.955
7.317062855,0.8057392,1.184492,1.723143,0.8210866,-0.57473,0.03506564,-17.60971,40.80556,-3.979279,1019.955
7.327052116,1.236213,0.7044058,1.906578,0.818342,-0.5826553,0.04017884,-17.60971,40.80556,-3.979279,1019.955
7.337041378,1.851174,0.2843308,1.784289,0.8217305,-0.5816218,0.03970145,-17.60971,40.80556,-3.979279,1019.956
7.34703064,2.343144,0.04428791,1.478564,0.8163273,-0.5797296,0.03834041,-17.60971,40.80556,-3.979279,1019.956
7.357019425,2.097159,-0.1357442,1.600854,0.8251734,-0.5816429,0.04497734,-16.86612,41.18487,-3.600245,1019.956
7.367008686,1.974167,-0.01572281,1.600854,0.8178251,-0.5797862,0.04410988,-16.86612,41.18487,-3.600245,1019.956
7.376997948,0.744243,0.2243201,1.600854,0.822284,-0.5836323,0.04446341,-16.86612,41.18487,-3.600245,1019.958
7.386987209,-0.1781998,0.4643629,1.417419,0.8206569,-0.5767356,0.03838899,-16.86612,41.18487,-3.600245,1019.958
7.396976471,-0.6701694,0.4043522,1.478564,0.8178336,-0.5826168,0.03681105,-16.86612,41.18487,-3.600245,1019.958
7.406965733,-0.547177,0.5243737,1.539709,0.8188321,-0.5831232,0.03920013,-17.60728,40.80526,-3.592388,1019.958
7.416955471,-0.1781998,0.6443951,1.417419,0.8126923,-0.59488,0.03508418,-17.60728,40.80526,-3.592388,1019.955
7.426944733,0.3137697,0.6443951,1.600854,0.8091955,-0.5905248,0.03425571,-17.60728,40.80526,-3.592388,1019.955
7.436933994,0.6212507,0.5843843,1.661999,0.81118,-0.5919797,0.03565045,-17.60728,40.80526,-3.592388,1019.955
7.446923256,0.6212507,0.7044058,1.845433,0.8105758,-0.5847045,0.03873194,-17.60728,40.80526,-3.592388,1019.955
7.456912041,0.744243,0.3443415,2.151158,0.8080255,-0.5812128,0.03064908,-17.61689,41.17839,-3.978659,1019.956
7.466901302,1.174716,0.1643093,2.334593,0.812809,-0.5762655,0.03122665,-17.61689,41.17839,-3.978659,1019.956
7.476890564,1.666686,-0.3157764,2.334593,0.8133896,-0.5802089,0.03449352,-17.61689,41.17839,-3.978659,1019.956
7.486879826,1.11322,-0.6758407,2.273448,0.819337,-0.5845606,0.03771465,-17.61689,41.17839,-3.978659,1019.956
7.496869087,-0.1167036,-1.395969,2.456883,0.8131133,-0.5905124,0.03760242,-17.61689,41.17839,-3.978659,1019.955
7.506858349,-0.7931617,-1.45598,2.456883,0.8062701,-0.5900933,0.03524949,-17.23553,40.80896,-3.983517,1019.955
7.516847611,-0.9161541,-1.035905,2.640318,0.8067207,-0.5900075,0.02946796,-17.23553,40.80896,-3.983517,1019.955
7.526836872,-0.547177,-0.9758942,2.884898,0.8073436,-0.5949795,0.03656194,-17.23553,40.80896,-3.983517,1019.955
7.536825657,0.1292812,-1.155926,3.007188,0.8088043,-0.5973001,0.02926669,-17.23553,40.80896,-3.983517,1019.956
7.546814919,1.236213,-1.275948,3.190623,0.811727,-0.5958511,0.03362035,-17.23553,40.80896,-3.983517,1019.956
7.55680418,1.851174,-1.395969,3.190623,0.8122084,-0.5939568,0.03848322,-17.23311,40.80865,-3.596626,1019.956
7.566793442,2.097159,-1.515991,3.618638,0.8121364,-0.5895834,0.04004139,-17.23311,40.80865,-3.596626,1019.956
7.576782704,2.343144,-1.636012,3.557493,0.8116553,-0.5900723,0.03955024,-17.23311,40.80865,-3.596626,1019.953
7.586771965,2.773618,-1.816044,3.435203,0.8113521,-0.5984429,0.04415423,-17.23311,40.80865,-3.596626,1019.953
7.596761227,2.773618,-2.056087,3.863218,0.8122725,-0.5936257,0.05005287,-17.23311,40.80865,-3.596626,1019.953
7.606750012,3.019602,-2.416152,3.557493,0.8167276,-0.6002762,0.04118138,-16.50155,41.5614,-3.990753,1019.953
7.616739273,3.573068,-2.836226,3.557493,0.8147644,-0.5993355,0.0417002,-16.50155,41.5614,-3.990753,1019.952
7.626729489,3.388579,-2.896237,3.496348,0.8070401,-0.6047556,0.0367942,-16.50155,41.5614,-3.990753,1019.952
7.636718273,3.819053,-2.896237,3.374058,0.8152846,-0.6008057,0.04262243,-16.50155,41.5614,-3.990753,1019.952
7.646707535,3.880549,-2.536173,3.740928,0.8138569,-0.6008994,0.04792843,-16.50155,41.5614,-3.990753,1019.952
7.656696797,3.942045,-2.356141,3.496348,0.8219837,-0.5929465,0.04663444,-16.86379,40.81265,-4.374645,1019.954
7.666686058,3.573068,-2.29613,3.496348,0.8206009,-0.5959493,0.05042014,-16.86379,40.81265,-4.374645,1019.954
7.67667532,2.835114,-2.056087,3.618638,0.8185229,-0.5905436,0.04575551,-16.86379,40.81265,-4.374645,1019.954
7.686664581,2.40464,-0.6758407,3.863218,0.8209734,-0.5910085,0.04669093,-16.86379,40.81265,-4.374645,1019.954
7.696653843,1.912671,0.2243201,4.291233,0.8188144,-0.580273,0.04505433,-16.86379,40.81265,-4.374645,1019.955
7.706643105,1.297709,0.4043522,4.596958,0.8043199,-0.5849625,0.05080966,-17.24029,41.18148,-3.596006,1019.955
7.71663189,0.8672354,-0.07573352,4.902683,0.8126487,-0.5858805,0.05554865,-17.24029,41.18148,-3.596006,1019.955
7.726621151,1.174716,0.1042986,5.208407,0.8166903,-0.5908213,0.06406619,-17.24029,41.18148,-3.596006,1019.955
7.736610413,1.60519,0.4643629,5.636422,0.8138729,-0.5976526,0.06053684,-17.24029,41.18148,-3.596006,1019.956
7.746599674,2.035663,0.5243737,5.819857,0.8250548,-0.5950974,0.06438299,-17.24029,41.18148,-3.596006,1019.956
7.756588936,2.158656,1.004459,5.697567,0.8153611,-0.5990952,0.06048996,-16.86854,41.18518,-3.987135,1019.956
7.766578197,2.343144,1.90462,6.125582,0.8222978,-0.604402,0.0631983,-16.86854,41.18518,-3.987135,1019.956
7.776567459,1.420701,1.844609,6.309017,0.8184947,-0.6079423,0.06794951,-16.86854,41.18518,-3.987135,1019.955
7.786556244,-0.239696,1.844609,6.064437,0.8184759,-0.6102456,0.05777404,-16.86854,41.18518,-3.987135,1019.955
7.796545505,-1.838597,0.6443951,5.697567,0.8184659,-0.6139738,0.04467148,-16.86854,41.18518,-3.987135,1019.955
7.806534767,-2.023085,0.4643629,5.697567,0.816121,-0.6179543,0.04747487,-16.51116,41.93454,-4.377024,1019.955
7.816524506,-1.285131,2.504727,5.697567,0.8209628,-0.6112574,0.06303072,-16.51116,41.93454,-4.377024,1019.953
7.826513767,-1.162139,4.004995,6.125582,0.8059068,-0.6218876,0.03828789,-16.51116,41.93454,-4.377024,1019.953
7.836503029,-1.223635,3.704942,6.247872,0.7990035,-0.6175897,0.03796204,-16.51116,41.93454,-4.377024,1019.953
7.84649229,-1.46962,2.444716,6.064437,0.8043159,-0.6164747,0.03362026,-16.51116,41.93454,-4.377024,1019.953
7.856481552,-1.715605,0.8844379,5.881002,0.8029426,-0.6180916,0.0432223,-16.49194,41.18826,-3.604483,1019.954
7.866470814,-1.592612,1.664577,6.003292,0.8085801,-0.6063094,0.04493354,-16.49194,41.18826,-3.604483,1019.954
7.876460075,-1.531116,4.125017,5.575277,0.8027259,-0.6073139,0.04061057,-16.49194,41.18826,-3.604483,1019.954
7.886449337,-0.9161541,4.965167,5.147263,0.8023106,-0.6131,0.03468369,-16.49194,41.18826,-3.604483,1019.954
7.896438122,0.3137697,3.824963,5.024972,0.7955183,-0.6160715,0.03031628,-16.49194,41.18826,-3.604483,1019.955
7.906427383,0.5597545,1.424534,5.575277,0.7915768,-0.6127521,0.03331793,-16.49437,41.18857,-3.991373,1019.955
7.916416645,0.5597545,2.264684,6.247872,0.8015071,-0.6125439,0.06457058,-16.49437,41.18857,-3.991373,1019.955
7.926405907,-0.8546579,4.065006,6.492452,0.803026,-0.5989367,0.03552504,-16.49437,41.18857,-3.991373,1019.955
7.936395168,-1.46962,5.745306,6.553597,0.7997754,-0.6101096,0.0275513,-16.49437,41.18857,-3.991373,1019.956
7.94638443,-0.9161541,6.585456,6.247872,0.7922888,-0.6004563,0.02784877,-16.49437,41.18857,-3.991373,1019.956
7.956373692,-0.239696,5.565274,6.064437,0.7921512,-0.6166825,0.03562172,-16.50873,41.93423,-3.990133,1019.956
7.966362476,0.2522736,5.025177,6.309017,0.7854947,-0.6255702,0.03543681,-16.50873,41.93423,-3.990133,1019.956
7.976351738,0.006288783,3.764952,6.981612,0.7920196,-0.6338587,0.04144327,-16.50873,41.93423,-3.990133,1019.954
7.986341,2.220152,4.185027,7.226192,0.8098946,-0.6224941,0.05125283,-16.50873,41.93423,-3.990133,1019.954
7.996330261,0.6827468,3.104834,7.593062,0.8052979,-0.6362798,0.05430052,-16.50873,41.93423,-3.990133,1019.954
8.00632,1.174716,2.924802,7.715352,0.7893865,-0.6198772,0.05193654,-16.50631,41.93393,-3.603243,1019.954
8.016309261,2.281648,3.044824,7.776497,0.7885352,-0.6285927,0.04545545,-16.50631,41.93393,-3.603243,1019.955
8.026298523,3.327083,3.224856,8.265656,0.793488,-0.6291652,0.05696975,-16.50631,41.93393,-3.603243,1019.955
8.036287785,3.880549,3.044824,8.387946,0.7878628,-0.6405051,0.05864191,-16.50631,41.93393,-3.603243,1019.955
8.046277046,3.942045,3.224856,8.754816,0.7882937,-0.6333461,0.07134823,-16.50631,41.93393,-3.603243,1019.955
8.056266308,3.69606,3.884974,8.938251,0.7909663,-0.6478813,0.06565775,-16.50631,41.93393,-3.603243,1019.956
8.066255569,2.220152,2.924802,8.999396,0.7861947,-0.6537917,0.06409186,-16.50631,41.93393,-3.603243,1019.956
8.076244354,1.728182,2.144663,9.182831,0.7875145,-0.6464351,0.06330897,-16.50631,41.93393,-3.603243,1019.956
8.086233616,2.466136,1.844609,9.488556,0.7902151,-0.6309158,0.07428852,-16.50631,41.93393,-3.603243,1019.956
8.096222878,2.589129,1.664577,10.16115,0.797596,-0.6365922,0.06879499,-16.50631,41.93393,-3.603243,1019.956
8.106212139,2.097159,1.724588,9.977716,0.7931699,-0.6360976,0.06353774,-16.50873,41.93423,-3.990133,1019.956
8.116201401,2.773618,2.204674,10.40573,0.791694,-0.6337442,0.06842528,-16.50873,41.93423,-3.990133,1019.956
8.126190662,2.343144,2.624749,10.40573,0.7833023,-0.6284723,0.06668907,-16.50873,41.93423,-3.990133,1019.956
8.136179924,1.789678,2.924802,10.83375,0.7889132,-0.6401856,0.07213169,-16.50873,41.93423,-3.990133,1019.955
8.146168709,3.019602,2.804781,10.95604,0.7820161,-0.6354323,0.07422618,-16.50873,41.93423,-3.990133,1019.955
8.15615797,4.065037,3.404888,11.50634,0.7827083,-0.6438342,0.08219494,-16.13456,41.93762,-3.994371,1019.955
8.166148186,4.679999,4.665113,11.50634,0.7817513,-0.6490414,0.06906055,-16.13456,41.93762,-3.994371,1019.955
8.176136971,4.802992,4.905156,11.38405,0.7817752,-0.6509677,0.06708391,-16.13456,41.93762,-3.994371,1019.954
8.186126232,6.340396,5.625285,11.38405,0.8003118,-0.6488765,0.07713233,-16.13456,41.93762,-3.994371,1019.954
8.196115494,6.586381,5.925338,11.81207,0.7753835,-0.6462465,0.07206464,-16.13456,41.93762,-3.994371,1019.954
8.206104755,7.201343,6.285402,12.11779,0.7847133,-0.6490828,0.07530253,-15.76281,41.94132,-4.3855,1019.954
8.216094017,10.21466,7.485617,12.42352,0.8218575,-0.6812611,0.07567608,-15.76281,41.94132,-4.3855,1019.956
8.226083279,9.169221,8.505799,12.60695,0.7766466,-0.6609145,0.07456942,-15.76281,41.94132,-4.3855,1019.956
8.23607254,8.615756,7.905692,12.85153,0.7725543,-0.6511776,0.07243811,-15.76281,41.94132,-4.3855,1019.956
8.246061325,9.107725,7.785671,13.09611,0.7809823,-0.6569965,0.07849558,-15.76281,41.94132,-4.3855,1019.956
8.256050587,8.06229,7.365595,13.46298,0.7702277,-0.6547289,0.079588,-15.40058,42.69007,-4.001608,1019.957
8.266039848,8.246778,7.365595,13.7687,0.7712832,-0.658639,0.08092568,-15.40058,42.69007,-4.001608,1019.957
8.27602911,8.615756,8.145735,13.70756,0.7687448,-0.6565789,0.07039726,-15.40058,42.69007,-4.001608,1019.957
8.286018372,8.431267,8.085724,13.58527,0.7554445,-0.6442673,0.08428976,-15.40058,42.69007,-4.001608,1019.957
8.296007633,7.877801,7.785671,13.7687,0.7677389,-0.6490256,0.0884222,-15.40058,42.69007,-4.001608,1019.958
8.305996895,7.693313,8.025714,14.50244,0.7827272,-0.6683649,0.09023497,-15.02165,42.32093,-4.393356,1019.958
8.315986157,7.078351,9.105906,14.50244,0.7783858,-0.6699273,0.09263195,-15.02165,42.32093,-4.393356,1019.958
8.325975895,6.2789,8.385777,14.13557,0.7456189,-0.6668469,0.08184655,-15.02165,42.32093,-4.393356,1019.958
8.335965157,7.447328,7.785671,14.31901,0.7552405,-0.6853095,0.0851623,-15.02165,42.32093,-4.393356,1019.957
8.345954418,8.554259,8.505799,15.05275,0.7587109,-0.6849209,0.09622931,-15.02165,42.32093,-4.393356,1019.957
8.355943203,8.615756,8.805853,15.41962,0.7588402,-0.6922296,0.09507701,-15.03369,42.69438,-5.166519,1019.957
8.365932465,8.800244,8.685831,15.48076,0.7617213,-0.6864725,0.1058042,-15.03369,42.69438,-5.166519,1019.957
8.375921726,8.492764,8.925875,15.35847,0.7550652,-0.6934863,0.1114483,-15.03369,42.69438,-5.166519,1019.954
8.385910988,8.615756,9.105906,15.6642,0.7549927,-0.6909869,0.1071775,-15.03369,42.69438,-5.166519,1019.954
8.39590025,9.476703,10.42614,16.39794,0.7520522,-0.6900542,0.1072208,-15.03369,42.69438,-5.166519,1019.954
8.405889511,9.845679,9.706014,16.39794,0.7310578,-0.6841651,0.1181083,-14.29252,43.07399,-5.174376,1019.954
8.415878773,11.01411,11.50634,16.64252,0.7170478,-0.6869668,0.129208,-14.29252,43.07399,-5.174376,1019.954
8.425867558,8.677252,9.585992,16.45908,0.7396969,-0.6720408,0.1337788,-14.29252,43.07399,-5.174376,1019.954
8.435856819,8.554259,8.56581,17.13168,0.7436431,-0.6809952,0.1142533,-14.29252,43.07399,-5.174376,1019.954
8.445846081,7.324336,8.925875,17.00939,0.7390957,-0.6920745,0.1337491,-14.29252,43.07399,-5.174376,1019.954
8.455835343,6.2789,9.345949,17.25397,0.7365913,-0.687744,0.1358039,-14.67631,43.44374,-5.556408,1019.953
8.465824604,4.495511,11.26629,20.31122,1.003545,-0.775358,0.2604193,-14.67631,43.44374,-5.556408,1019.953
8.475814343,7.631816,9.105906,18.53801,0.7328594,-0.7003427,0.1244245,-14.67631,43.44374,-5.556408,1019.953
8.485803604,7.754809,9.646003,18.41572,0.738507,-0.7107289,0.1400174,-14.67631,43.44374,-5.556408,1019.953
8.495792866,7.201343,9.646003,18.47687,0.7324192,-0.7221285,0.1455449,-14.67631,43.44374,-5.556408,1019.954
8.505782127,7.508824,9.525982,18.84374,0.7345778,-0.7342695,0.1428098,-14.31933,44.19315,-6.01078,1019.954
8.515771389,8.431267,9.826035,19.21061,0.7158947,-0.7247965,0.1441396,-14.31933,44.19315,-6.01078,1019.954
8.525760651,8.369771,10.48615,19.69977,0.7105036,-0.7243359,0.140333,-14.31933,44.19315,-6.01078,1019.954
8.535749436,8.677252,10.78621,19.8832,0.7139038,-0.724734,0.13741,-14.31933,44.19315,-6.01078,1019.955
8.545738697,8.984733,10.7262,20.31122,0.7179452,-0.7306117,0.1430131,-14.31933,44.19315,-6.01078,1019.955
8.555727959,10.89111,11.50634,19.94435,0.6876231,-0.7256406,0.1394862,-13.5794,44.51093,-6.405632,1019.955
8.56571722,11.99805,12.4065,21.22839,0.6787242,-0.7151768,0.1504119,-13.5794,44.51093,-6.405632,1019.955
8.575706482,13.53545,12.58653,22.57358,0.7015442,-0.7118673,0.1474568,-13.5794,44.51093,-6.405632,1019.952
8.585695744,12.55151,9.525982,21.65641,0.6861923,-0.7530302,0.140718,-13.5794,44.51093,-6.405632,1019.952
8.595685005,11.56757,8.625821,21.22839,0.6492202,-0.7277836,0.147391,-13.5794,44.51093,-6.405632,1019.952
8.60567379,10.09166,8.025714,21.71755,0.6661056,-0.6900353,0.155477,-13.96318,44.88068,-6.787664,1019.952
8.615663052,10.39915,9.886045,22.39015,0.7169136,-0.7832326,0.1325134,-13.96318,44.88068,-6.787664,1019.952
8.625653267,8.554259,8.625821,21.65641,0.6812899,-0.7723689,0.1566316,-13.96318,44.88068,-6.787664,1019.952
8.635642052,8.677252,8.745842,21.90099,0.6860487,-0.7687748,0.1489851,-13.96318,44.88068,-6.787664,1019.952
8.645631313,11.62907,11.08626,22.329,0.6878767,-0.7623938,0.1486555,-13.96318,44.88068,-6.787664,1019.952
8.655620575,12.49002,9.886045,23.06274,0.6634425,-0.755553,0.1576631,-13.27962,44.88721,-7.182325,1019.953
8.665609837,6.955359,10.48615,28.50465,0.6580282,-0.7761354,0.08539131,-13.27962,44.88721,-7.182325,1019.953
8.675599098,13.47395,8.445788,23.67419,0.6492783,-0.7265024,0.160912,-13.27962,44.88721,-7.182325,1019.953
8.68558836,14.45789,9.105906,23.97992,0.673835,-0.7571592,0.1792314,-13.27962,44.88721,-7.182325,1019.953
8.695577622,13.65844,9.465971,24.28564,0.6647613,-0.7392886,0.1840863,-13.27962,44.88721,-7.182325,1019.954
8.705566883,11.75206,8.925875,24.53022,0.6501753,-0.7447189,0.1724808,-12.54089,45.26712,-7.577072,1019.954
8.715555668,11.93655,8.985885,24.71366,0.6489612,-0.7565208,0.1770025,-12.54089,45.26712,-7.577072,1019.954
8.725544929,6.524885,9.225928,28.32121,0.6400377,-0.800961,0.09546895,-12.54089,45.26712,-7.577072,1019.954
8.735534191,12.42852,7.365595,24.40793,0.6344908,-0.7621996,0.1836957,-12.54089,45.26712,-7.577072,1019.955
8.745523453,13.90443,7.665649,24.40793,0.6463128,-0.7693404,0.1829527,-12.54089,45.26712,-7.577072,1019.955
8.755513191,12.85899,6.645467,24.89709,0.6434175,-0.7703798,0.1843901,-11.80215,45.64705,-7.971817,1019.955
8.765502453,11.69057,5.565274,25.32511,0.6297511,-0.7347827,0.2094821,-11.80215,45.64705,-7.971817,1019.955
8.775491714,13.65844,8.145735,25.20282,0.66391,-0.7348799,0.2179264,-11.80215,45.64705,-7.971817,1019.956
8.785480976,11.38308,7.545628,26.6703,0.7019142,-0.7062168,0.3060892,-11.80215,45.64705,-7.971817,1019.956
8.795470238,12.24403,7.065542,25.75312,0.6416466,-0.7402064,0.226125,-11.80215,45.64705,-7.971817,1019.956
8.805459499,11.1986,8.745842,26.60915,0.6329817,-0.7725469,0.2243866,-11.05664,45.65419,-8.431667,1019.956
8.815448284,9.968672,8.685831,26.73144,0.6254893,-0.7619436,0.2266355,-11.05664,45.65419,-8.431667,1019.954
8.825437546,8.615756,8.505799,26.60915,0.632032,-0.7721453,0.2297022,-11.05664,45.65419,-8.431667,1019.954
8.835426807,8.369771,8.145735,26.91488,0.6145873,-0.779162,0.2238555,-11.05664,45.65419,-8.431667,1019.954
8.845416069,8.369771,8.025714,27.2206,0.5673332,-0.7882864,0.1969541,-11.05664,45.65419,-8.431667,1019.954
8.855405331,9.292213,8.505799,27.09831,0.6180123,-0.7777383,0.2306138,-11.08061,46.77299,-8.8167,1019.955
8.865394592,10.03017,8.685831,27.34289,0.6177934,-0.79004,0.2370431,-11.08061,46.77299,-8.8167,1019.955
8.875383854,10.52214,8.865864,27.52633,0.6158447,-0.791943,0.2312262,-11.08061,46.77299,-8.8167,1019.955
8.885372639,11.1371,10.06608,27.46518,0.6135425,-0.7955466,0.2422284,-11.08061,46.77299,-8.8167,1019.955
8.895362854,12.24403,10.78621,26.97602,0.6003947,-0.7952808,0.2442485,-11.08061,46.77299,-8.8167,1019.956
8.905352116,12.49002,11.20628,27.2206,0.5965611,-0.7992243,0.242727,-11.07829,46.40078,-9.591099,1019.956
8.9153409,13.41246,11.80639,26.85373,0.5918734,-0.7845742,0.2378356,-11.07829,46.40078,-9.591099,1019.956
8.925330162,12.92049,11.02625,27.28175,0.586168,-0.7868363,0.2541938,-11.07829,46.40078,-9.591099,1019.956
8.935319424,12.6745,11.38631,27.34289,0.5976511,-0.7989898,0.2624769,-11.07829,46.40078,-9.591099,1019.955
8.945308685,9.784184,11.80639,27.83205,0.6227532,-0.7328582,0.3468708,-11.07829,46.40078,-9.591099,1019.955
8.955297947,10.52214,11.3263,27.95434,0.5851337,-0.7839091,0.2533124,-9.605564,47.53314,-9.993084,1019.955
8.965287209,12.24403,12.4065,27.77091,0.5920475,-0.8094385,0.2704343,-9.605564,47.53314,-9.993084,1019.955
8.97527647,12.55151,12.34649,28.07663,0.5683515,-0.7955142,0.262277,-9.605564,47.53314,-9.993084,1019.956
8.985265732,12.12104,11.50634,28.07663,0.5627922,-0.8116831,0.2599706,-9.605564,47.53314,-9.993084,1019.956
8.995254517,12.24403,11.62636,27.15946,0.5411944,-0.7947708,0.2855975,-9.605564,47.53314,-9.993084,1019.956
9.005243778,10.09166,12.28647,27.8932,0.5234904,-0.7904497,0.2718547,-8.866829,47.91306,-10.38783,1019.956
9.015233994,11.01411,12.28647,27.34289,0.5205711,-0.8168652,0.2716762,-8.866829,47.91306,-10.38783,1019.956
9.025222778,11.75206,12.82657,27.34289,0.5377904,-0.824948,0.2742456,-8.866829,47.91306,-10.38783,1019.956
9.03521204,11.1371,11.8664,26.85373,0.5165114,-0.8114167,0.2617266,-8.866829,47.91306,-10.38783,1019.956
9.045201302,10.52214,12.16645,26.73144,0.512267,-0.7877601,0.2772967,-8.866829,47.91306,-10.38783,1019.956
9.055190563,9.661191,12.4065,26.79259,0.5005613,-0.7911812,0.2647605,-8.138105,48.66617,-11.23333,1019.953
9.065179825,13.28947,13.24665,26.36457,0.5206018,-0.8159937,0.279406,-8.138105,48.66617,-11.23333,1019.953
9.075169086,10.39915,11.68637,26.54801,0.4980909,-0.7845801,0.2793984,-8.138105,48.66617,-11.23333,1019.953
9.085158348,13.22797,13.06661,26.11999,0.5144867,-0.8268658,0.282057,-8.138105,48.66617,-11.23333,1019.953
9.095147133,13.53545,12.94659,26.30343,0.4953943,-0.7958896,0.2820157,-8.138105,48.66617,-11.23333,1019.954
9.105136395,11.62907,11.3263,26.24228,0.492285,-0.8285753,0.3115444,-7.018017,48.67665,-11.63293,1019.954
9.115125656,13.41246,13.90676,26.18114,0.485683,-0.7975058,0.2825195,-7.018017,48.67665,-11.63293,1019.954
9.125114918,12.736,13.36667,26.54801,0.4986158,-0.8336343,0.2954755,-7.018017,48.67665,-11.63293,1019.954
9.135104656,12.30553,13.0066,25.81427,0.4844658,-0.836135,0.2844243,-7.018017,48.67665,-11.63293,1019.955
9.145093918,11.81356,12.76656,25.9977,0.4676081,-0.8452343,0.2886365,-7.018017,48.67665,-11.63293,1019.955
9.15508318,13.59695,12.70655,25.50854,0.4663433,-0.8244692,0.3045943,-6.286461,49.4294,-12.02706,1019.955
9.165072441,12.18253,12.22646,25.56969,0.4691084,-0.8198691,0.2926512,-6.286461,49.4294,-12.02706,1019.955
9.175061703,12.85899,12.58653,25.50854,0.477342,-0.8380419,0.3089903,-6.286461,49.4294,-12.02706,1019.954
9.185050964,11.99805,12.16645,25.75312,0.4500681,-0.8149009,0.3015752,-6.286461,49.4294,-12.02706,1019.954
9.195040226,12.55151,11.68637,25.9977,0.4501739,-0.8184093,0.3082285,-6.286461,49.4294,-12.02706,1019.954
9.205029011,9.845679,11.50634,26.79259,0.4789213,-0.7602329,0.4068458,-5.924326,49.80624,-12.80447,1019.954
9.215018272,12.85899,11.68637,25.9977,0.460883,-0.8474127,0.2977775,-5.924326,49.80624,-12.80447,1019.955
9.225007534,12.42852,11.80639,25.9977,0.441509,-0.8234474,0.3100828,-5.924326,49.80624,-12.80447,1019.955
9.234996796,12.736,11.50634,25.50854,0.4524783,-0.8322698,0.3242357,-5.924326,49.80624,-12.80447,1019.955
9.244986057,12.36702,11.38631,25.56969,0.4366546,-0.8188679,0.327093,-4.864168,49.81585,-12.81647,1019.955
9.254975796,11.69057,11.02625,25.20282,0.4241078,-0.8263392,0.3240928,-4.864168,49.81585,-12.81647,1019.955
9.264965057,11.1371,10.60617,24.95824,0.4013677,-0.8123612,0.3130402,-4.864168,49.81585,-12.81647,1019.955
9.274954319,11.1371,10.42614,24.89709,0.4389803,-0.8600765,0.3428783,-4.864168,49.81585,-12.81647,1019.955
9.284943581,12.30553,11.50634,24.04106,0.4390724,-0.8701176,0.327204,-4.864168,49.81585,-12.81647,1019.952
9.294932842,11.0756,12.4065,23.91877,0.4198189,-0.8520358,0.3412841,-4.13069,50.19644,-14.04948,1019.952
9.304921627,11.44458,12.76656,23.61305,0.4067243,-0.8316128,0.333706,-4.13069,50.19644,-14.04948,1019.952
9.314910889,11.0756,12.52652,23.36847,0.3965655,-0.8328528,0.3419302,-4.13069,50.19644,-14.04948,1019.952
9.32490015,9.784184,12.10644,23.0016,0.3921262,-0.8234241,0.3619528,-4.13069,50.19644,-14.04948,1019.954
9.334889412,10.03017,13.30666,22.329,0.3872455,-0.8272251,0.3488804,-4.13069,50.19644,-14.04948,1019.954
9.344878674,10.70663,13.5467,21.59526,0.3638345,-0.8048909,0.3332298,-3.015354,50.57944,-14.06158,1019.954
9.354867935,9.599694,13.12662,21.16725,0.3933235,-0.8196707,0.4102146,-3.015354,50.57944,-14.06158,1019.954
9.364857197,10.76812,12.94659,20.37236,0.3521796,-0.8263493,0.3539505,-3.015354,50.57944,-14.06158,1019.953
9.374846935,10.58363,12.52652,19.76091,0.3456826,-0.8162457,0.3581069,-3.015354,50.57944,-14.06158,1019.953
9.384836197,10.27615,12.64654,18.6603,0.3447928,-0.8201913,0.3599381,-3.015354,50.57944,-14.06158,1019.953
9.394825459,9.784184,12.04643,17.92656,0.3258177,-0.8228629,0.3561402,-1.149343,50.59701,-14.85655,1019.953
9.40481472,9.169221,12.22646,17.07053,0.340857,-0.8187589,0.3580739,-1.149343,50.59701,-14.85655,1019.948
9.414803505,9.292213,11.62636,16.58137,0.3360792,-0.8251247,0.3540877,-1.149343,50.59701,-14.85655,1019.948
9.424792767,10.33765,11.50634,15.96992,0.3350126,-0.8165036,0.3653963,-1.149343,50.59701,-14.85655,1019.948
9.434782028,8.615756,10.66619,15.35847,0.3303949,-0.8288381,0.3694449,-1.149343,50.59701,-14.85655,1019.948
9.44477129,7.385832,10.54616,14.80817,0.3337712,-0.8273097,0.3684986,-1.533126,50.96676,-15.23858,1019.949
9.454760552,6.893862,10.48615,14.19672,0.3270026,-0.8063107,0.3613755,-1.533126,50.96676,-15.23858,1019.949
9.464749813,5.909923,10.36613,13.2184,0.3050393,-0.8037286,0.3630313,-1.533126,50.96676,-15.23858,1019.949
9.474739075,5.356457,10.48615,13.46298,0.3457205,-0.8102338,0.3828296,-1.533126,50.96676,-15.23858,1019.949
9.487226009,5.47945,10.30612,12.5458,0.3273309,-0.8220153,0.3672319,-1.533126,50.96676,-15.23858,1019.948
9.497215271,5.786931,9.465971,11.9955,0.3273495,-0.8206491,0.3744929,-0.787612,50.9739,-15.69843,1019.948
9.507204533,4.802992,9.525982,11.56749,0.3194062,-0.811537,0.3781515,-0.787612,50.9739,-15.69843,1019.948
9.517193794,4.802992,8.985885,11.38405,0.3142617,-0.824262,0.3744859,-0.787612,50.9739,-15.69843,1019.948
9.527183056,4.065037,8.685831,10.65031,0.3193306,-0.8363333,0.3698065,-0.787612,50.9739,-15.69843,1019.949
9.537171841,3.573068,8.505799,9.916571,0.3099589,-0.8301259,0.3700278,-0.787612,50.9739,-15.69843,1019.949
9.547161102,2.158656,6.525445,9.182831,0.3100557,-0.8331462,0.3766936,-0.04887581,51.35382,-16.09318,1019.949
9.557150364,1.912671,6.645467,8.326801,0.3085764,-0.8321918,0.3767279,-0.04887581,51.35382,-16.09318,1019.949
9.567139626,1.482197,6.585456,7.226192,0.3041893,-0.8341246,0.3704445,-0.04887581,51.35382,-16.09318,1019.946
9.577128887,0.9287316,6.165381,6.431307,0.2999562,-0.8415443,0.3726901,-0.04887581,51.35382,-16.09318,1019.946
9.587118149,1.851174,5.925338,5.758712,0.2920839,-0.8414906,0.3602182,-0.04887581,51.35382,-16.09318,1019.946
9.597107887,1.666686,5.625285,5.269552,0.2964776,-0.837697,0.3732936,0.7066517,50.98777,-16.10227,1019.946
9.607097149,0.744243,5.26522,4.841537,0.29105,-0.8362208,0.366623,0.7066517,50.98777,-16.10227,1019.948
9.617086411,-0.3011922,4.845145,4.230088,0.2959809,-0.8395584,0.3660231,0.7066517,50.98777,-16.10227,1019.948
9.627075672,-0.239696,4.725124,3.618638,0.2916006,-0.8382249,0.3709034,0.7066517,50.98777,-16.10227,1019.948
9.637064457,-1.408124,4.42507,2.701463,0.2800769,-0.8448495,0.3785164,0.7066517,50.98777,-16.10227,1019.948
9.652048588,-2.330566,3.58492,2.456883,0.2868716,-0.844227,0.3760791,0.6994696,51.3606,-16.10165,1019.949
9.65704298,-2.392063,2.624749,1.967723,0.2883627,-0.8470815,0.372142,0.6994696,51.3606,-16.10165,1019.949
9.667032242,-2.392063,2.144663,1.295129,0.2979389,-0.8372066,0.3747418,0.6994696,51.3606,-16.10165,1019.949
9.677021504,-2.146078,1.124481,0.6836789,0.297217,-0.8522938,0.3700229,0.6994696,51.3606,-16.10165,1019.949
9.687010765,-2.330566,0.4043522,0.5002439,0.2949022,-0.8582135,0.3718128,0.6994696,51.3606,-16.10165,1019.95
9.697000504,-2.945528,-0.01572281,0.133374,0.2944784,-0.8611692,0.3731847,1.073643,51.36399,-16.10589,1019.95
9.706989765,-3.683483,-0.07573352,-0.4780758,0.2846003,-0.8596147,0.3559472,1.073643,51.36399,-16.10589,1019.95
9.716979027,-4.605926,-1.215937,-0.9060906,0.2834372,-0.8470364,0.3635044,1.073643,51.36399,-16.10589,1019.95
9.726968288,-5.282383,-2.236119,-1.272961,0.2819126,-0.8445784,0.3606873,1.073643,51.36399,-16.10589,1019.946
9.736957073,-5.958842,-2.836226,-1.945555,0.292933,-0.856323,0.374283,1.073643,51.36399,-16.10589,1019.946
9.746946335,-6.389315,-2.29613,-2.434715,0.293771,-0.8522661,0.3642655,1.083253,50.99086,-15.71962,1019.946
9.756935596,-5.958842,-2.956248,-3.046165,0.2967647,-0.8603439,0.3510313,1.083253,50.99086,-15.71962,1019.946
9.769422054,-6.6353,-3.616366,-3.290745,0.3003884,-0.8691902,0.3589694,1.083253,50.99086,-15.71962,1019.949
9.77691412,-6.6353,-3.676377,-3.47418,0.3061405,-0.8618729,0.3658641,1.083253,50.99086,-15.71962,1019.949
9.786903381,-5.774353,-3.796398,-4.146775,0.2944021,-0.8619426,0.3582317,1.083253,50.99086,-15.71962,1019.949
9.796892643,-5.774353,-4.516527,-4.513645,0.3090477,-0.8617966,0.3634383,1.08568,50.99055,-15.33273,1019.949
9.806882381,-7.311758,-4.516527,-4.758224,0.3031757,-0.8604195,0.3635123,1.08568,50.99055,-15.33273,1019.95
9.816871643,-8.2342,-4.636548,-5.614254,0.2953066,-0.8599036,0.3529791,1.08568,50.99055,-15.33273,1019.95
9.826860905,-7.742231,-4.936602,-6.225704,0.2907506,-0.8544428,0.341588,1.08568,50.99055,-15.33273,1019.95
9.836850166,-7.43475,-5.056623,-6.714864,0.2995646,-0.8501938,0.3618721,1.08568,50.99055,-15.33273,1019.95
9.846838951,-7.496246,-5.716741,-7.570894,0.3024391,-0.8467661,0.3643501,1.071721,51.73616,-15.26701,1019.952
9.856828213,-6.881285,-6.49688,-8.426924,0.3052888,-0.84516,0.3571467,1.071721,51.73616,-15.26701,1019.952
9.866817474,-5.897346,-7.33703,-8.916083,0.308605,-0.8402215,0.3567702,1.071721,51.73616,-15.26701,1019.952
9.876806736,-4.913406,-7.757105,-9.772113,0.3249311,-0.8536489,0.3563176,1.071721,51.73616,-15.26701,1019.952
9.886795998,-4.667422,-8.057158,-10.87272,0.3234963,-0.857946,0.3475454,1.071721,51.73616,-15.26701,1019.949
9.896785259,-5.282383,-8.17718,-11.60646,0.3263916,-0.856438,0.3475651,0.3449211,50.61088,-15.26039,1019.949
9.906774998,-5.405376,-9.07734,-12.52364,0.3239284,-0.8582894,0.3374173,0.3449211,50.61088,-15.26039,1019.949
9.916764259,-6.512307,-9.617437,-13.19623,0.3280477,-0.8426567,0.3416462,0.3449211,50.61088,-15.26039,1019.949
9.926753521,-6.14333,-9.317384,-13.92997,0.3249031,-0.8286301,0.3482902,0.3449211,50.61088,-15.26039,1019.951
9.936742783,-6.6353,-8.777287,-14.60257,0.3268454,-0.8281195,0.3487723,0.3449211,50.61088,-15.26039,1019.951
9.946731567,-7.742231,-9.01733,-15.15287,0.3379066,-0.8483885,0.3428792,0.7095852,51.35932,-14.48961,1019.951
9.956720829,-9.21814,-8.597255,-16.0089,0.3320588,-0.8202298,0.348941,0.7095852,51.35932,-14.48961,1019.951
9.966710091,-9.402628,-9.617437,-16.55921,0.3304408,-0.8411234,0.3392613,0.7095852,51.35932,-14.48961,1019.952
9.976699352,-9.771605,-11.35775,-17.04837,0.3237034,-0.8437442,0.3450189,0.7095852,51.35932,-14.48961,1019.952
9.986688614,-9.894598,-10.5176,-17.72096,0.3387119,-0.8409802,0.3377655,0.7095852,51.35932,-14.48961,1019.952
9.996677876,-9.156644,-10.5176,-18.4547,0.3427856,-0.8520833,0.3326358,-0.01721382,50.23405,-14.48299,1019.952
10.00666761,-8.480186,-10.87766,-18.94386,0.3421114,-0.87196,0.3210491,-0.01721382,50.23405,-14.48299,1019.953
10.01665688,-7.803727,-10.69763,-19.61646,0.3494481,-0.8436771,0.3323266,-0.01721382,50.23405,-14.48299,1019.953
10.02664614,-8.849163,-10.09752,-20.28905,0.3540606,-0.8275818,0.3389728,-0.01721382,50.23405,-14.48299,1019.953
10.0366354,-8.787666,-9.85748,-20.41134,0.3564987,-0.8289575,0.3350676,-0.01721382,50.23405,-14.48299,1019.953
10.04662466,-9.21814,-12.07788,-20.77821,0.3570037,-0.8303949,0.3335821,-0.7655602,50.22726,-14.47451,1019.954
10.05661345,-9.648613,-12.85802,-21.02279,0.3590233,-0.8111848,0.3239466,-0.7655602,50.22726,-14.47451,1019.954
10.06660271,-11.18602,-13.21808,-21.5731,0.36442,-0.8140008,0.32143,-0.7655602,50.22726,-14.47451,1019.954
10.07659197,-13.33838,-15.43848,-22.00111,0.370003,-0.8275293,0.3167098,-0.7655602,50.22726,-14.47451,1019.954
10.08658123,-15.12177,-16.09859,-22.55141,0.3793435,-0.8369507,0.3014725,-0.7655602,50.22726,-14.47451,1019.951
10.09657049,-16.04422,-16.09859,-22.85714,0.4029219,-0.8459349,0.3054221,-1.890407,50.58931,-13.6874,1019.951
10.10656023,-14.6298,-15.61851,-23.52973,0.4055189,-0.857964,0.2949793,-1.890407,50.58931,-13.6874,1019.951
10.11654949,-13.52287,-15.91856,-23.52973,0.4090105,-0.8585583,0.3065026,-1.890407,50.58931,-13.6874,1019.951
10.12653875,-13.39988,-14.89838,-24.01889,0.4176544,-0.8520689,0.3056493,-1.890407,50.58931,-13.6874,1019.953
10.13652802,-13.46138,-14.83837,-24.99721,0.4013729,-0.8161222,0.3023453,-1.890407,50.58931,-13.6874,1019.953
10.14651728,-12.60043,-14.4783,-24.81378,0.4054084,-0.8210498,0.3098997,-3.372231,50.20194,-12.44592,1019.953
10.15650606,-12.90791,-15.0184,-25.60866,0.4197249,-0.8089471,0.297592,-3.372231,50.20194,-12.44592,1019.953
10.16649532,-13.70736,-14.71835,-26.03668,0.4265072,-0.8097039,0.2888569,-3.372231,50.20194,-12.44592,1019.955
10.17648459,-13.76886,-15.19843,-26.64813,0.4132514,-0.8021753,0.2954001,-3.372231,50.20194,-12.44592,1019.955
10.18647385,-13.39988,-15.73853,-27.07614,0.4335588,-0.8180701,0.3011204,-3.372231,50.20194,-12.44592,1019.955
10.19646359,-13.76886,-15.0184,-28.29904,0.4529399,-0.8373636,0.3043507,-3.72961,49.45258,-12.05602,1019.955
10.20645285,-15.79823,-16.27863,-28.97164,0.4602724,-0.8142276,0.2991169,-3.72961,49.45258,-12.05602,1019.956
10.21644211,-15.92122,-16.21862,-29.58309,0.4662822,-0.797973,0.2956417,-3.72961,49.45258,-12.05602,1019.956
10.22643137,-16.16721,-15.43848,-29.70538,0.475542,-0.800659,0.2878041,-3.72961,49.45258,-12.05602,1019.956
10.23642063,-17.39713,-15.79854,-29.76652,0.5026944,-0.795299,0.2824646,-3.72961,49.45258,-12.05602,1019.956
10.24640989,-16.72067,-15.91856,-29.88881,0.5068232,-0.8051143,0.2903745,-4.465919,49.07235,-11.27438,1019.957
10.25639868,-16.2902,-14.71835,-30.50026,0.4980051,-0.8282199,0.2917649,-4.465919,49.07235,-11.27438,1019.957
10.26638794,-15.85973,-13.93821,-31.60087,0.492369,-0.7928999,0.2744047,-4.465919,49.07235,-11.27438,1019.957
10.2763772,-15.49075,-13.8782,-32.15118,0.5029137,-0.8084257,0.2782717,-4.465919,49.07235,-11.27438,1019.957
10.28636646,-16.41319,-14.11824,-33.06835,0.4924018,-0.7957827,0.2709582,-4.465919,49.07235,-11.27438,1019.956
10.2963562,-18.81155,-15.61851,-33.92438,0.4862287,-0.7796968,0.2665952,-5.13946,48.69264,-10.42897,1019.956
10.30634546,-18.68855,-13.93821,-34.47469,0.5009404,-0.7839111,0.2692806,-5.13946,48.69264,-10.42897,1019.956
10.31633472,-18.44257,-15.85855,-35.88102,0.5232612,-0.8078851,0.2608097,-5.13946,48.69264,-10.42897,1019.956
10.32632399,-17.8891,-14.35828,-36.37018,0.5538601,-0.8002104,0.2685138,-5.13946,48.69264,-10.42897,1019.957
10.33631325,-19.67249,-13.75818,-36.6759,0.5611491,-0.8085015,0.2398306,-5.13946,48.69264,-10.42897,1019.957
10.34630251,-17.9506,-12.61797,-36.73705,0.5707964,-0.8340502,0.2256216,-6.259552,48.68216,-10.02937,1019.957
10.35629177,-17.52013,-11.77782,-36.98163,0.5833831,-0.8252584,0.2392535,-6.259552,48.68216,-10.02937,1019.957
10.36628056,-17.27414,-11.89784,-36.61476,0.5677354,-0.8004001,0.2260255,-6.259552,48.68216,-10.02937,1019.954
10.37626982,-15.79823,-11.83783,-36.6759,0.5540733,-0.7991458,0.2266293,-6.259552,48.68216,-10.02937,1019.954
10.38626003,-14.6298,-12.07788,-36.92049,0.568536,-0.8141909,0.2353001,-6.259552,48.68216,-10.02937,1019.954
10.39624882,-14.19933,-12.79801,-37.3485,0.5672594,-0.8324209,0.2097896,-7.367607,48.29823,-8.856602,1019.954
10.40623808,-14.32232,-12.61797,-38.44911,0.5750132,-0.8044488,0.2085313,-7.367607,48.29823,-8.856602,1019.956
10.41622734,-14.19933,-11.95786,-38.81598,0.577437,-0.8011068,0.2167907,-7.367607,48.29823,-8.856602,1019.956
10.4262166,-15.12177,-12.61797,-39.54972,0.5816147,-0.7963802,0.1971339,-7.367607,48.29823,-8.856602,1019.956
10.43620586,-14.93729,-12.85802,-39.91659,0.5865026,-0.7741978,0.1875561,-7.367607,48.29823,-8.856602,1019.956
10.44619513,-13.0309,-12.1979,-40.46689,0.5979756,-0.7627772,0.1863293,-8.46332,47.1689,-8.007481,1019.957
10.45618439,-11.86248,-12.07788,-40.83376,0.6062831,-0.7636495,0.1876975,-8.46332,47.1689,-8.007481,1019.957
10.46617317,-11.98547,-13.03805,-40.89491,0.6049269,-0.7699907,0.1856164,-8.46332,47.1689,-8.007481,1019.957
10.47616339,-12.53893,-13.45812,-40.95605,0.6195189,-0.7645736,0.1981849,-8.46332,47.1689,-8.007481,1019.957
10.48615265,-13.89185,-13.8782,-40.83376,0.626268,-0.7643214,0.1870672,-8.46332,47.1689,-8.007481,1019.958
10.49614143,-14.56831,-14.35828,-41.07834,0.6293492,-0.7753997,0.1790543,-9.950401,46.78219,-7.604258,1019.958
10.5061307,-14.13783,-13.99822,-41.38407,0.6316907,-0.7728181,0.1713977,-9.950401,46.78219,-7.604258,1019.958
10.51611996,-12.78492,-14.4783,-41.81208,0.6444178,-0.7765145,0.1697738,-9.950401,46.78219,-7.604258,1019.958
10.52610922,-10.87854,-14.29827,-41.87323,0.6496016,-0.7921138,0.1731924,-9.950401,46.78219,-7.604258,1019.958
10.53609848,-10.57106,-13.69817,-42.05666,0.6479927,-0.7857247,0.16855,-9.950401,46.78219,-7.604258,1019.958
10.54608774,-10.14058,-13.57814,-41.5675,0.6646186,-0.7644096,0.1636901,-10.31739,46.40597,-7.600639,1019.958
10.556077,-9.71011,-13.3381,-41.13949,0.6788096,-0.7690277,0.1596242,-10.31739,46.40597,-7.600639,1019.958
10.56606674,-8.480186,-12.85802,-40.77262,0.6832571,-0.7695681,0.1682523,-10.31739,46.40597,-7.600639,1019.961
10.576056,-7.680735,-12.73799,-40.03888,0.6878319,-0.7585477,0.1530903,-10.31739,46.40597,-7.600639,1019.961
10.58604527,-8.295697,-12.67798,-39.67201,0.6911693,-0.7541234,0.1546274,-10.31739,46.40597,-7.600639,1019.961
10.59603453,-6.696796,-13.09806,-39.67201,0.6893777,-0.7346861,0.1599565,-12.1571,44.89738,-7.195038,1019.961
10.60602331,-6.512307,-14.29827,-39.67201,0.686229,-0.7253378,0.1515464,-12.1571,44.89738,-7.195038,1019.957
10.61601257,-7.496246,-15.37847,-39.244,0.6960089,-0.7299623,0.1431738,-12.1571,44.89738,-7.195038,1019.957
10.62600184,-8.603178,-15.19843,-39.06056,0.7078707,-0.7367198,0.1501481,-12.1571,44.89738,-7.195038,1019.957
10.6359911,-9.464125,-15.0184,-39.42743,0.7108526,-0.715595,0.1444094,-12.1571,44.89738,-7.195038,1019.957
10.64598036,-8.111208,-15.5585,-39.1217,0.7078897,-0.718833,0.1279667,-12.90302,44.89029,-6.799671,1019.96
10.6559701,-6.450811,-16.87873,-39.36628,0.7193884,-0.7023113,0.1466219,-12.90302,44.89029,-6.799671,1019.96
10.66595936,-5.528368,-17.11878,-38.99941,0.7231845,-0.7020373,0.130707,-12.90302,44.89029,-6.799671,1019.96
10.67594862,-5.774353,-17.95893,-38.26567,0.742804,-0.7170392,0.1061057,-12.90302,44.89029,-6.799671,1019.96
10.68593788,-6.020338,-18.73907,-37.77652,0.7474767,-0.7038856,0.1136393,-12.90302,44.89029,-6.799671,1019.962
10.69592714,-4.974903,-17.65887,-36.79819,0.7612179,-0.70531,0.1255557,-13.27477,44.88659,-6.408545,1019.962
10.70591593,-5.466872,-17.2388,-36.1256,0.7572782,-0.7076191,0.111552,-13.27477,44.88659,-6.408545,1019.962
10.71590519,-6.450811,-18.9191,-35.26957,0.7624711,-0.6964041,0.1185506,-13.27477,44.88659,-6.408545,1019.962
10.72589445,-5.528368,-19.09913,-34.29125,0.7776158,-0.697214,0.1227659,-13.27477,44.88659,-6.408545,1019.965
10.73588419,-5.466872,-18.73907,-33.1295,0.7703098,-0.6968545,0.1242683,-13.27477,44.88659,-6.408545,1019.965
10.74587345,-6.6353,-18.49902,-32.21232,0.7853494,-0.7181788,0.1284383,-14.31458,43.82063,-6.398293,1019.965
10.75586271,-8.541681,-18.49902,-31.05057,0.7807052,-0.6994041,0.1434037,-14.31458,43.82063,-6.398293,1019.965
10.76585197,-9.279636,-18.79908,-29.94996,0.7926039,-0.7174903,0.1216642,-14.31458,43.82063,-6.398293,1019.961
10.77584124,-9.033651,-18.379,-28.54362,0.7885067,-0.7298893,0.1310068,-14.31458,43.82063,-6.398293,1019.961
10.7858305,-10.44806,-18.13896,-27.80988,0.7819276,-0.7186721,0.125076,-14.31458,43.82063,-6.398293,1019.961
10.79581976,-10.20208,-16.81872,-27.07614,0.7706226,-0.6866295,0.1269379,-14.67196,43.07127,-6.0084,1019.961
10.80580902,-9.279636,-17.2388,-25.97553,0.7823198,-0.6935021,0.1064516,-14.67196,43.07127,-6.0084,1019.964
10.81579781,-7.92672,-16.57868,-24.69149,0.7769108,-0.6915969,0.1041275,-14.67196,43.07127,-6.0084,1019.964
